"trial_type","trial_index","time_elapsed","internal_node_id","subject","condition","ID","age","dob","marital","natlang","olang","gender","ethnicity","mental_check","educ_l","educ_c","mental","mentdrug","mentpos","sesparent","sesstudent","sesladder","educ_hs","educ_ce","s1self","chosenbody","s1selfjudge","s2selfjudge","s2self","sspc_01","sspc_02","pas_01","pas_02","pas_03","pas_04","pas_05","pas_06","pas_07","pas_08","pas_09","pas_10","pas_11","pas_12","pas_13","pas_14","contact_01","contact_02","contact_03","contact_04","contact_05","contact_06","contact_07","contact_08","contact_09","idnd_01","idnd_02","idnd_03","idnd_04","idnd_05","idnd_06","idnd_07","idnd_08","catch_01","adig_01","adig_02","adig_03","plcs_01","plcs_02","plcs_03","plcs_04","plcs_05","plcs_06","plcs_07","plcs_08","plcs_09","plcs_10","plcs_11","plcs_12","catch_02","wwwp_01","wwwp_02","wwwp_03","wwwp_04","wwwp_05","wwwp_06","wwwp_07","wwwp_08","wwwp_09","lsns_fam_1","lsns_fam_2","lsns_fam_3","lsns_fri_1","lsns_fri_2","lsns_fri_3","debrief","rt","url","success","view_history","responses","question_order","final_value","start_value","stimulus","key_press","trial","block","freq"
"pavlovia","0","3","0.0-0.0","ers5m2z9jlf1lvl","1","60fced859ee8235b63d47240","28","071993","Single","English","French","Female","White or Caucasian","No","Graduate degree","No, currently not in school","N/A","N/A","N/A","9","8","7","1","4","0.766666676","stim/H160.jpg","76","76","0.66666666","4","1","3","","1","3","4","2","4","3","3","4","1","3","1","2","5","5","1","5","5","2","10","2","1","5","0","5","5","5","0","5","5","5","1","1","2","1","1","2","4","3","4","5","1","1","4","3","4","1","5","3","4","3","3","3","5","3","0","3","4","3","3","4","4","agree","","","","","","","","","","","","",""
"external-html","1","12226","0.0-1.0","ers5m2z9jlf1lvl","1","60fced859ee8235b63d47240","28","071993","Single","English","French","Female","White or Caucasian","No","Graduate degree","No, currently not in school","N/A","N/A","N/A","9","8","7","1","4","0.766666676","stim/H160.jpg","76","76","0.66666666","4","1","3","","1","3","4","2","4","3","3","4","1","3","1","2","5","5","1","5","5","2","10","2","1","5","0","5","5","5","0","5","5","5","1","1","2","1","1","2","4","3","4","5","1","1","4","3","4","1","5","3","4","3","3","3","5","3","0","3","4","3","3","4","4","agree","11996","sub/html/consent.html","","","","","","","","","","",""
"fullscreen","2","15264","0.0-2.0","ers5m2z9jlf1lvl","1","60fced859ee8235b63d47240","28","071993","Single","English","French","Female","White or Caucasian","No","Graduate degree","No, currently not in school","N/A","N/A","N/A","9","8","7","1","4","0.766666676","stim/H160.jpg","76","76","0.66666666","4","1","3","","1","3","4","2","4","3","3","4","1","3","1","2","5","5","1","5","5","2","10","2","1","5","0","5","5","5","0","5","5","5","1","1","2","1","1","2","4","3","4","5","1","1","4","3","4","1","5","3","4","3","3","3","5","3","0","3","4","3","3","4","4","agree","","","true","","","","","","","","","",""
"instructions","3","19097","0.0-3.0","ers5m2z9jlf1lvl","1","60fced859ee8235b63d47240","28","071993","Single","English","French","Female","White or Caucasian","No","Graduate degree","No, currently not in school","N/A","N/A","N/A","9","8","7","1","4","0.766666676","stim/H160.jpg","76","76","0.66666666","4","1","3","","1","3","4","2","4","3","3","4","1","3","1","2","5","5","1","5","5","2","10","2","1","5","0","5","5","5","0","5","5","5","1","1","2","1","1","2","4","3","4","5","1","1","4","3","4","1","5","3","4","3","3","3","5","3","0","3","4","3","3","4","4","agree","3831","","","[{""page_index"":0,""viewing_time"":1543},{""page_index"":1,""viewing_time"":2288}]","","","","","","","","",""
"survey-text","4","57955","0.0-4.0-0.0","ers5m2z9jlf1lvl","1","60fced859ee8235b63d47240","28","071993","Single","English","French","Female","White or Caucasian","No","Graduate degree","No, currently not in school","N/A","N/A","N/A","9","8","7","1","4","0.766666676","stim/H160.jpg","76","76","0.66666666","4","1","3","","1","3","4","2","4","3","3","4","1","3","1","2","5","5","1","5","5","2","10","2","1","5","0","5","5","5","0","5","5","5","1","1","2","1","1","2","4","3","4","5","1","1","4","3","4","1","5","3","4","3","3","3","5","3","0","3","4","3","3","4","4","agree","38853","","","","{""ID"":""60fced859ee8235b63d47240"",""age"":""28"",""dob"":""071993"",""marital"":""Single"",""natlang"":""English"",""olang"":""French""}","","","","","","","",""
"survey-multi-choice","5","77498","0.0-4.0-1.0","ers5m2z9jlf1lvl","1","60fced859ee8235b63d47240","28","071993","Single","English","French","Female","White or Caucasian","No","Graduate degree","No, currently not in school","N/A","N/A","N/A","9","8","7","1","4","0.766666676","stim/H160.jpg","76","76","0.66666666","4","1","3","","1","3","4","2","4","3","3","4","1","3","1","2","5","5","1","5","5","2","10","2","1","5","0","5","5","5","0","5","5","5","1","1","2","1","1","2","4","3","4","5","1","1","4","3","4","1","5","3","4","3","3","3","5","3","0","3","4","3","3","4","4","agree","19541","","","","{""gender"":""Female"",""ethnicity"":""White or Caucasian"",""mental_check"":""No"",""educ_l"":""Graduate degree"",""educ_c"":""No, currently not in school""}","[0,1,2,3,4]","","","","","","",""
"survey-text","6","88554","0.0-4.0-2.0","ers5m2z9jlf1lvl","1","60fced859ee8235b63d47240","28","071993","Single","English","French","Female","White or Caucasian","No","Graduate degree","No, currently not in school","N/A","N/A","N/A","9","8","7","1","4","0.766666676","stim/H160.jpg","76","76","0.66666666","4","1","3","","1","3","4","2","4","3","3","4","1","3","1","2","5","5","1","5","5","2","10","2","1","5","0","5","5","5","0","5","5","5","1","1","2","1","1","2","4","3","4","5","1","1","4","3","4","1","5","3","4","3","3","3","5","3","0","3","4","3","3","4","4","agree","11052","","","","{""mental"":""N/A"",""mentdrug"":""N/A"",""mentpos"":""N/A""}","","","","","","","",""
"survey-likert","7","110955","0.0-4.0-3.0","ers5m2z9jlf1lvl","1","60fced859ee8235b63d47240","28","071993","Single","English","French","Female","White or Caucasian","No","Graduate degree","No, currently not in school","N/A","N/A","N/A","9","8","7","1","4","0.766666676","stim/H160.jpg","76","76","0.66666666","4","1","3","","1","3","4","2","4","3","3","4","1","3","1","2","5","5","1","5","5","2","10","2","1","5","0","5","5","5","0","5","5","5","1","1","2","1","1","2","4","3","4","5","1","1","4","3","4","1","5","3","4","3","3","3","5","3","0","3","4","3","3","4","4","agree","22398","","","","{""sesparent"":9,""sesstudent"":8,""sesladder"":7}","[0,1,2]","","","","","","",""
"survey-likert","8","121395","0.0-4.0-4.0","ers5m2z9jlf1lvl","1","60fced859ee8235b63d47240","28","071993","Single","English","French","Female","White or Caucasian","No","Graduate degree","No, currently not in school","N/A","N/A","N/A","9","8","7","1","4","0.766666676","stim/H160.jpg","76","76","0.66666666","4","1","3","","1","3","4","2","4","3","3","4","1","3","1","2","5","5","1","5","5","2","10","2","1","5","0","5","5","5","0","5","5","5","1","1","2","1","1","2","4","3","4","5","1","1","4","3","4","1","5","3","4","3","3","3","5","3","0","3","4","3","3","4","4","agree","10435","","","","{""educ_hs"":2,""educ_ce"":1}","[0,1]","","","","","","",""
"reconstruction","9","153496","0.0-5.0","ers5m2z9jlf1lvl","1","60fced859ee8235b63d47240","28","071993","Single","English","French","Female","White or Caucasian","No","Graduate degree","No, currently not in school","N/A","N/A","N/A","9","8","7","1","4","0.766666676","stim/H160.jpg","76","76","0.66666666","4","1","3","","1","3","4","2","4","3","3","4","1","3","1","2","5","5","1","5","5","2","10","2","1","5","0","5","5","5","0","5","5","5","1","1","2","1","1","2","4","3","4","5","1","1","4","3","4","1","5","3","4","3","3","3","5","3","0","3","4","3","3","4","4","agree","32097","","","","","","0.766666676","0.5","","","","",""
"image-keyboard-response","10","158816","0.0-6.0","ers5m2z9jlf1lvl","1","60fced859ee8235b63d47240","28","071993","Single","English","French","Female","White or Caucasian","No","Graduate degree","No, currently not in school","N/A","N/A","N/A","9","8","7","1","4","0.766666676","stim/H160.jpg","76","76","0.66666666","4","1","3","","1","3","4","2","4","3","3","4","1","3","1","2","5","5","1","5","5","2","10","2","1","5","0","5","5","5","0","5","5","5","1","1","2","1","1","2","4","3","4","5","1","1","4","3","4","1","5","3","4","3","3","3","5","3","0","3","4","3","3","4","4","agree","5317","","","","","","","","stim/H160.jpg","76","","",""
"instructions","11","182401","0.0-7.0","ers5m2z9jlf1lvl","1","60fced859ee8235b63d47240","28","071993","Single","English","French","Female","White or Caucasian","No","Graduate degree","No, currently not in school","N/A","N/A","N/A","9","8","7","1","4","0.766666676","stim/H160.jpg","76","76","0.66666666","4","1","3","","1","3","4","2","4","3","3","4","1","3","1","2","5","5","1","5","5","2","10","2","1","5","0","5","5","5","0","5","5","5","1","1","2","1","1","2","4","3","4","5","1","1","4","3","4","1","5","3","4","3","3","3","5","3","0","3","4","3","3","4","4","agree","23583","","","[{""page_index"":0,""viewing_time"":1366},{""page_index"":1,""viewing_time"":4744},{""page_index"":2,""viewing_time"":3760},{""page_index"":3,""viewing_time"":3288},{""page_index"":4,""viewing_time"":4329},{""page_index"":5,""viewing_time"":4480},{""page_index"":6,""viewing_time"":1616}]","","","","","","","","",""
"image-keyboard-response","12","182904","0.0-8.0-0.0","ers5m2z9jlf1lvl","1","60fced859ee8235b63d47240","28","071993","Single","English","French","Female","White or Caucasian","No","Graduate degree","No, currently not in school","N/A","N/A","N/A","9","8","7","1","4","0.766666676","stim/H160.jpg","76","76","0.66666666","4","1","3","","1","3","4","2","4","3","3","4","1","3","1","2","5","5","1","5","5","2","10","2","1","5","0","5","5","5","0","5","5","5","1","1","2","1","1","2","4","3","4","5","1","1","4","3","4","1","5","3","4","3","3","3","5","3","0","3","4","3","3","4","4","agree","null","","","","","","","","stim/H280.jpg","null","","",""
"html-keyboard-response","13","184230","0.0-8.0-1.0","ers5m2z9jlf1lvl","1","60fced859ee8235b63d47240","28","071993","Single","English","French","Female","White or Caucasian","No","Graduate degree","No, currently not in school","N/A","N/A","N/A","9","8","7","1","4","0.766666676","stim/H160.jpg","76","76","0.66666666","4","1","3","","1","3","4","2","4","3","3","4","1","3","1","2","5","5","1","5","5","2","10","2","1","5","0","5","5","5","0","5","5","5","1","1","2","1","1","2","4","3","4","5","1","1","4","3","4","1","5","3","4","3","3","3","5","3","0","3","4","3","3","4","4","agree","1326","","","","","","","","<div style=""font-size:60px;"">?</div>","76","1","Practice","0.5"
"image-keyboard-response","14","185247","0.0-8.0-0.1","ers5m2z9jlf1lvl","1","60fced859ee8235b63d47240","28","071993","Single","English","French","Female","White or Caucasian","No","Graduate degree","No, currently not in school","N/A","N/A","N/A","9","8","7","1","4","0.766666676","stim/H160.jpg","76","76","0.66666666","4","1","3","","1","3","4","2","4","3","3","4","1","3","1","2","5","5","1","5","5","2","10","2","1","5","0","5","5","5","0","5","5","5","1","1","2","1","1","2","4","3","4","5","1","1","4","3","4","1","5","3","4","3","3","3","5","3","0","3","4","3","3","4","4","agree","null","","","","","","","","stim/T220.jpg","null","","",""
"html-keyboard-response","15","185293","0.0-8.0-1.1","ers5m2z9jlf1lvl","1","60fced859ee8235b63d47240","28","071993","Single","English","French","Female","White or Caucasian","No","Graduate degree","No, currently not in school","N/A","N/A","N/A","9","8","7","1","4","0.766666676","stim/H160.jpg","76","76","0.66666666","4","1","3","","1","3","4","2","4","3","3","4","1","3","1","2","5","5","1","5","5","2","10","2","1","5","0","5","5","5","0","5","5","5","1","1","2","1","1","2","4","3","4","5","1","1","4","3","4","1","5","3","4","3","3","3","5","3","0","3","4","3","3","4","4","agree","45","","","","","","","","<div style=""font-size:60px;"">?</div>","65","2","Practice","0.5"
"image-keyboard-response","16","186309","0.0-8.0-0.2","ers5m2z9jlf1lvl","1","60fced859ee8235b63d47240","28","071993","Single","English","French","Female","White or Caucasian","No","Graduate degree","No, currently not in school","N/A","N/A","N/A","9","8","7","1","4","0.766666676","stim/H160.jpg","76","76","0.66666666","4","1","3","","1","3","4","2","4","3","3","4","1","3","1","2","5","5","1","5","5","2","10","2","1","5","0","5","5","5","0","5","5","5","1","1","2","1","1","2","4","3","4","5","1","1","4","3","4","1","5","3","4","3","3","3","5","3","0","3","4","3","3","4","4","agree","null","","","","","","","","stim/T240.jpg","null","","",""
"html-keyboard-response","17","186311","0.0-8.0-1.2","ers5m2z9jlf1lvl","1","60fced859ee8235b63d47240","28","071993","Single","English","French","Female","White or Caucasian","No","Graduate degree","No, currently not in school","N/A","N/A","N/A","9","8","7","1","4","0.766666676","stim/H160.jpg","76","76","0.66666666","4","1","3","","1","3","4","2","4","3","3","4","1","3","1","2","5","5","1","5","5","2","10","2","1","5","0","5","5","5","0","5","5","5","1","1","2","1","1","2","4","3","4","5","1","1","4","3","4","1","5","3","4","3","3","3","5","3","0","3","4","3","3","4","4","agree","2","","","","","","","","<div style=""font-size:60px;"">?</div>","65","3","Practice","0.5"
"image-keyboard-response","18","187328","0.0-8.0-0.3","ers5m2z9jlf1lvl","1","60fced859ee8235b63d47240","28","071993","Single","English","French","Female","White or Caucasian","No","Graduate degree","No, currently not in school","N/A","N/A","N/A","9","8","7","1","4","0.766666676","stim/H160.jpg","76","76","0.66666666","4","1","3","","1","3","4","2","4","3","3","4","1","3","1","2","5","5","1","5","5","2","10","2","1","5","0","5","5","5","0","5","5","5","1","1","2","1","1","2","4","3","4","5","1","1","4","3","4","1","5","3","4","3","3","3","5","3","0","3","4","3","3","4","4","agree","null","","","","","","","","stim/T110.jpg","null","","",""
"html-keyboard-response","19","187352","0.0-8.0-1.3","ers5m2z9jlf1lvl","1","60fced859ee8235b63d47240","28","071993","Single","English","French","Female","White or Caucasian","No","Graduate degree","No, currently not in school","N/A","N/A","N/A","9","8","7","1","4","0.766666676","stim/H160.jpg","76","76","0.66666666","4","1","3","","1","3","4","2","4","3","3","4","1","3","1","2","5","5","1","5","5","2","10","2","1","5","0","5","5","5","0","5","5","5","1","1","2","1","1","2","4","3","4","5","1","1","4","3","4","1","5","3","4","3","3","3","5","3","0","3","4","3","3","4","4","agree","24","","","","","","","","<div style=""font-size:60px;"">?</div>","65","4","Practice","0.5"
"image-keyboard-response","20","188369","0.0-8.0-0.4","ers5m2z9jlf1lvl","1","60fced859ee8235b63d47240","28","071993","Single","English","French","Female","White or Caucasian","No","Graduate degree","No, currently not in school","N/A","N/A","N/A","9","8","7","1","4","0.766666676","stim/H160.jpg","76","76","0.66666666","4","1","3","","1","3","4","2","4","3","3","4","1","3","1","2","5","5","1","5","5","2","10","2","1","5","0","5","5","5","0","5","5","5","1","1","2","1","1","2","4","3","4","5","1","1","4","3","4","1","5","3","4","3","3","3","5","3","0","3","4","3","3","4","4","agree","null","","","","","","","","stim/T140.jpg","null","","",""
"html-keyboard-response","21","189272","0.0-8.0-1.4","ers5m2z9jlf1lvl","1","60fced859ee8235b63d47240","28","071993","Single","English","French","Female","White or Caucasian","No","Graduate degree","No, currently not in school","N/A","N/A","N/A","9","8","7","1","4","0.766666676","stim/H160.jpg","76","76","0.66666666","4","1","3","","1","3","4","2","4","3","3","4","1","3","1","2","5","5","1","5","5","2","10","2","1","5","0","5","5","5","0","5","5","5","1","1","2","1","1","2","4","3","4","5","1","1","4","3","4","1","5","3","4","3","3","3","5","3","0","3","4","3","3","4","4","agree","903","","","","","","","","<div style=""font-size:60px;"">?</div>","65","5","Practice","0.5"
"image-keyboard-response","22","190291","0.0-8.0-0.5","ers5m2z9jlf1lvl","1","60fced859ee8235b63d47240","28","071993","Single","English","French","Female","White or Caucasian","No","Graduate degree","No, currently not in school","N/A","N/A","N/A","9","8","7","1","4","0.766666676","stim/H160.jpg","76","76","0.66666666","4","1","3","","1","3","4","2","4","3","3","4","1","3","1","2","5","5","1","5","5","2","10","2","1","5","0","5","5","5","0","5","5","5","1","1","2","1","1","2","4","3","4","5","1","1","4","3","4","1","5","3","4","3","3","3","5","3","0","3","4","3","3","4","4","agree","null","","","","","","","","stim/H150.jpg","null","","",""
"html-keyboard-response","23","190506","0.0-8.0-1.5","ers5m2z9jlf1lvl","1","60fced859ee8235b63d47240","28","071993","Single","English","French","Female","White or Caucasian","No","Graduate degree","No, currently not in school","N/A","N/A","N/A","9","8","7","1","4","0.766666676","stim/H160.jpg","76","76","0.66666666","4","1","3","","1","3","4","2","4","3","3","4","1","3","1","2","5","5","1","5","5","2","10","2","1","5","0","5","5","5","0","5","5","5","1","1","2","1","1","2","4","3","4","5","1","1","4","3","4","1","5","3","4","3","3","3","5","3","0","3","4","3","3","4","4","agree","213","","","","","","","","<div style=""font-size:60px;"">?</div>","76","6","Practice","0.5"
"image-keyboard-response","24","191528","0.0-8.0-0.6","ers5m2z9jlf1lvl","1","60fced859ee8235b63d47240","28","071993","Single","English","French","Female","White or Caucasian","No","Graduate degree","No, currently not in school","N/A","N/A","N/A","9","8","7","1","4","0.766666676","stim/H160.jpg","76","76","0.66666666","4","1","3","","1","3","4","2","4","3","3","4","1","3","1","2","5","5","1","5","5","2","10","2","1","5","0","5","5","5","0","5","5","5","1","1","2","1","1","2","4","3","4","5","1","1","4","3","4","1","5","3","4","3","3","3","5","3","0","3","4","3","3","4","4","agree","null","","","","","","","","stim/H050.jpg","null","","",""
"html-keyboard-response","25","191569","0.0-8.0-1.6","ers5m2z9jlf1lvl","1","60fced859ee8235b63d47240","28","071993","Single","English","French","Female","White or Caucasian","No","Graduate degree","No, currently not in school","N/A","N/A","N/A","9","8","7","1","4","0.766666676","stim/H160.jpg","76","76","0.66666666","4","1","3","","1","3","4","2","4","3","3","4","1","3","1","2","5","5","1","5","5","2","10","2","1","5","0","5","5","5","0","5","5","5","1","1","2","1","1","2","4","3","4","5","1","1","4","3","4","1","5","3","4","3","3","3","5","3","0","3","4","3","3","4","4","agree","41","","","","","","","","<div style=""font-size:60px;"">?</div>","76","7","Practice","0.5"
"image-keyboard-response","26","192591","0.0-8.0-0.7","ers5m2z9jlf1lvl","1","60fced859ee8235b63d47240","28","071993","Single","English","French","Female","White or Caucasian","No","Graduate degree","No, currently not in school","N/A","N/A","N/A","9","8","7","1","4","0.766666676","stim/H160.jpg","76","76","0.66666666","4","1","3","","1","3","4","2","4","3","3","4","1","3","1","2","5","5","1","5","5","2","10","2","1","5","0","5","5","5","0","5","5","5","1","1","2","1","1","2","4","3","4","5","1","1","4","3","4","1","5","3","4","3","3","3","5","3","0","3","4","3","3","4","4","agree","null","","","","","","","","stim/H060.jpg","null","","",""
"html-keyboard-response","27","194258","0.0-8.0-1.7","ers5m2z9jlf1lvl","1","60fced859ee8235b63d47240","28","071993","Single","English","French","Female","White or Caucasian","No","Graduate degree","No, currently not in school","N/A","N/A","N/A","9","8","7","1","4","0.766666676","stim/H160.jpg","76","76","0.66666666","4","1","3","","1","3","4","2","4","3","3","4","1","3","1","2","5","5","1","5","5","2","10","2","1","5","0","5","5","5","0","5","5","5","1","1","2","1","1","2","4","3","4","5","1","1","4","3","4","1","5","3","4","3","3","3","5","3","0","3","4","3","3","4","4","agree","1666","","","","","","","","<div style=""font-size:60px;"">?</div>","76","8","Practice","0.5"
"image-keyboard-response","28","195274","0.0-8.0-0.8","ers5m2z9jlf1lvl","1","60fced859ee8235b63d47240","28","071993","Single","English","French","Female","White or Caucasian","No","Graduate degree","No, currently not in school","N/A","N/A","N/A","9","8","7","1","4","0.766666676","stim/H160.jpg","76","76","0.66666666","4","1","3","","1","3","4","2","4","3","3","4","1","3","1","2","5","5","1","5","5","2","10","2","1","5","0","5","5","5","0","5","5","5","1","1","2","1","1","2","4","3","4","5","1","1","4","3","4","1","5","3","4","3","3","3","5","3","0","3","4","3","3","4","4","agree","null","","","","","","","","stim/T180.jpg","null","","",""
"html-keyboard-response","29","195340","0.0-8.0-1.8","ers5m2z9jlf1lvl","1","60fced859ee8235b63d47240","28","071993","Single","English","French","Female","White or Caucasian","No","Graduate degree","No, currently not in school","N/A","N/A","N/A","9","8","7","1","4","0.766666676","stim/H160.jpg","76","76","0.66666666","4","1","3","","1","3","4","2","4","3","3","4","1","3","1","2","5","5","1","5","5","2","10","2","1","5","0","5","5","5","0","5","5","5","1","1","2","1","1","2","4","3","4","5","1","1","4","3","4","1","5","3","4","3","3","3","5","3","0","3","4","3","3","4","4","agree","66","","","","","","","","<div style=""font-size:60px;"">?</div>","65","9","Practice","0.5"
"image-keyboard-response","30","196355","0.0-8.0-0.9","ers5m2z9jlf1lvl","1","60fced859ee8235b63d47240","28","071993","Single","English","French","Female","White or Caucasian","No","Graduate degree","No, currently not in school","N/A","N/A","N/A","9","8","7","1","4","0.766666676","stim/H160.jpg","76","76","0.66666666","4","1","3","","1","3","4","2","4","3","3","4","1","3","1","2","5","5","1","5","5","2","10","2","1","5","0","5","5","5","0","5","5","5","1","1","2","1","1","2","4","3","4","5","1","1","4","3","4","1","5","3","4","3","3","3","5","3","0","3","4","3","3","4","4","agree","null","","","","","","","","stim/H210.jpg","null","","",""
"html-keyboard-response","31","198207","0.0-8.0-1.9","ers5m2z9jlf1lvl","1","60fced859ee8235b63d47240","28","071993","Single","English","French","Female","White or Caucasian","No","Graduate degree","No, currently not in school","N/A","N/A","N/A","9","8","7","1","4","0.766666676","stim/H160.jpg","76","76","0.66666666","4","1","3","","1","3","4","2","4","3","3","4","1","3","1","2","5","5","1","5","5","2","10","2","1","5","0","5","5","5","0","5","5","5","1","1","2","1","1","2","4","3","4","5","1","1","4","3","4","1","5","3","4","3","3","3","5","3","0","3","4","3","3","4","4","agree","1850","","","","","","","","<div style=""font-size:60px;"">?</div>","76","10","Practice","0.5"
"html-keyboard-response","32","202350","0.0-9.0","ers5m2z9jlf1lvl","1","60fced859ee8235b63d47240","28","071993","Single","English","French","Female","White or Caucasian","No","Graduate degree","No, currently not in school","N/A","N/A","N/A","9","8","7","1","4","0.766666676","stim/H160.jpg","76","76","0.66666666","4","1","3","","1","3","4","2","4","3","3","4","1","3","1","2","5","5","1","5","5","2","10","2","1","5","0","5","5","5","0","5","5","5","1","1","2","1","1","2","4","3","4","5","1","1","4","3","4","1","5","3","4","3","3","3","5","3","0","3","4","3","3","4","4","agree","3636","","","","","","","","<p>You have now completed the practice series.</p><p>If you have any questions, please reload this page and read the instructions again.</p><p>Otherwise, you're ready to begin the study!</p><p><strong>REMEMBER</strong>: Press <b>L </b>when you think the face is of Western origin, and <b>A </b>if not. </p><p>Press SPACE when you're ready to start!</p>","32","","",""
"html-keyboard-response","33","204188","0.0-10.0","ers5m2z9jlf1lvl","1","60fced859ee8235b63d47240","28","071993","Single","English","French","Female","White or Caucasian","No","Graduate degree","No, currently not in school","N/A","N/A","N/A","9","8","7","1","4","0.766666676","stim/H160.jpg","76","76","0.66666666","4","1","3","","1","3","4","2","4","3","3","4","1","3","1","2","5","5","1","5","5","2","10","2","1","5","0","5","5","5","0","5","5","5","1","1","2","1","1","2","4","3","4","5","1","1","4","3","4","1","5","3","4","3","3","3","5","3","0","3","4","3","3","4","4","agree","1329","","","","","","","","<p>Block 1</p><p>Press SPACE to continue.</p>","32","","",""
"image-keyboard-response","34","205703","0.0-11.0-0.0","ers5m2z9jlf1lvl","1","60fced859ee8235b63d47240","28","071993","Single","English","French","Female","White or Caucasian","No","Graduate degree","No, currently not in school","N/A","N/A","N/A","9","8","7","1","4","0.766666676","stim/H160.jpg","76","76","0.66666666","4","1","3","","1","3","4","2","4","3","3","4","1","3","1","2","5","5","1","5","5","2","10","2","1","5","0","5","5","5","0","5","5","5","1","1","2","1","1","2","4","3","4","5","1","1","4","3","4","1","5","3","4","3","3","3","5","3","0","3","4","3","3","4","4","agree","null","","","","","","","","stim/T190.jpg","null","","",""
"html-keyboard-response","35","205755","0.0-11.0-1.0","ers5m2z9jlf1lvl","1","60fced859ee8235b63d47240","28","071993","Single","English","French","Female","White or Caucasian","No","Graduate degree","No, currently not in school","N/A","N/A","N/A","9","8","7","1","4","0.766666676","stim/H160.jpg","76","76","0.66666666","4","1","3","","1","3","4","2","4","3","3","4","1","3","1","2","5","5","1","5","5","2","10","2","1","5","0","5","5","5","0","5","5","5","1","1","2","1","1","2","4","3","4","5","1","1","4","3","4","1","5","3","4","3","3","3","5","3","0","3","4","3","3","4","4","agree","50","","","","","","","","<div style=""font-size:60px;"">?</div>","65","1","1","0.8"
"image-keyboard-response","36","206770","0.0-11.0-0.1","ers5m2z9jlf1lvl","1","60fced859ee8235b63d47240","28","071993","Single","English","French","Female","White or Caucasian","No","Graduate degree","No, currently not in school","N/A","N/A","N/A","9","8","7","1","4","0.766666676","stim/H160.jpg","76","76","0.66666666","4","1","3","","1","3","4","2","4","3","3","4","1","3","1","2","5","5","1","5","5","2","10","2","1","5","0","5","5","5","0","5","5","5","1","1","2","1","1","2","4","3","4","5","1","1","4","3","4","1","5","3","4","3","3","3","5","3","0","3","4","3","3","4","4","agree","null","","","","","","","","stim/H280.jpg","null","","",""
"html-keyboard-response","37","206797","0.0-11.0-1.1","ers5m2z9jlf1lvl","1","60fced859ee8235b63d47240","28","071993","Single","English","French","Female","White or Caucasian","No","Graduate degree","No, currently not in school","N/A","N/A","N/A","9","8","7","1","4","0.766666676","stim/H160.jpg","76","76","0.66666666","4","1","3","","1","3","4","2","4","3","3","4","1","3","1","2","5","5","1","5","5","2","10","2","1","5","0","5","5","5","0","5","5","5","1","1","2","1","1","2","4","3","4","5","1","1","4","3","4","1","5","3","4","3","3","3","5","3","0","3","4","3","3","4","4","agree","25","","","","","","","","<div style=""font-size:60px;"">?</div>","76","2","1","0.8"
"image-keyboard-response","38","207808","0.0-11.0-0.2","ers5m2z9jlf1lvl","1","60fced859ee8235b63d47240","28","071993","Single","English","French","Female","White or Caucasian","No","Graduate degree","No, currently not in school","N/A","N/A","N/A","9","8","7","1","4","0.766666676","stim/H160.jpg","76","76","0.66666666","4","1","3","","1","3","4","2","4","3","3","4","1","3","1","2","5","5","1","5","5","2","10","2","1","5","0","5","5","5","0","5","5","5","1","1","2","1","1","2","4","3","4","5","1","1","4","3","4","1","5","3","4","3","3","3","5","3","0","3","4","3","3","4","4","agree","null","","","","","","","","stim/H010.jpg","null","","",""
"html-keyboard-response","39","208232","0.0-11.0-1.2","ers5m2z9jlf1lvl","1","60fced859ee8235b63d47240","28","071993","Single","English","French","Female","White or Caucasian","No","Graduate degree","No, currently not in school","N/A","N/A","N/A","9","8","7","1","4","0.766666676","stim/H160.jpg","76","76","0.66666666","4","1","3","","1","3","4","2","4","3","3","4","1","3","1","2","5","5","1","5","5","2","10","2","1","5","0","5","5","5","0","5","5","5","1","1","2","1","1","2","4","3","4","5","1","1","4","3","4","1","5","3","4","3","3","3","5","3","0","3","4","3","3","4","4","agree","423","","","","","","","","<div style=""font-size:60px;"">?</div>","76","3","1","0.8"
"image-keyboard-response","40","209249","0.0-11.0-0.3","ers5m2z9jlf1lvl","1","60fced859ee8235b63d47240","28","071993","Single","English","French","Female","White or Caucasian","No","Graduate degree","No, currently not in school","N/A","N/A","N/A","9","8","7","1","4","0.766666676","stim/H160.jpg","76","76","0.66666666","4","1","3","","1","3","4","2","4","3","3","4","1","3","1","2","5","5","1","5","5","2","10","2","1","5","0","5","5","5","0","5","5","5","1","1","2","1","1","2","4","3","4","5","1","1","4","3","4","1","5","3","4","3","3","3","5","3","0","3","4","3","3","4","4","agree","null","","","","","","","","stim/H170.jpg","null","","",""
"html-keyboard-response","41","211399","0.0-11.0-1.3","ers5m2z9jlf1lvl","1","60fced859ee8235b63d47240","28","071993","Single","English","French","Female","White or Caucasian","No","Graduate degree","No, currently not in school","N/A","N/A","N/A","9","8","7","1","4","0.766666676","stim/H160.jpg","76","76","0.66666666","4","1","3","","1","3","4","2","4","3","3","4","1","3","1","2","5","5","1","5","5","2","10","2","1","5","0","5","5","5","0","5","5","5","1","1","2","1","1","2","4","3","4","5","1","1","4","3","4","1","5","3","4","3","3","3","5","3","0","3","4","3","3","4","4","agree","2151","","","","","","","","<div style=""font-size:60px;"">?</div>","76","4","1","0.8"
"image-keyboard-response","42","212418","0.0-11.0-0.4","ers5m2z9jlf1lvl","1","60fced859ee8235b63d47240","28","071993","Single","English","French","Female","White or Caucasian","No","Graduate degree","No, currently not in school","N/A","N/A","N/A","9","8","7","1","4","0.766666676","stim/H160.jpg","76","76","0.66666666","4","1","3","","1","3","4","2","4","3","3","4","1","3","1","2","5","5","1","5","5","2","10","2","1","5","0","5","5","5","0","5","5","5","1","1","2","1","1","2","4","3","4","5","1","1","4","3","4","1","5","3","4","3","3","3","5","3","0","3","4","3","3","4","4","agree","null","","","","","","","","stim/H200.jpg","null","","",""
"html-keyboard-response","43","212462","0.0-11.0-1.4","ers5m2z9jlf1lvl","1","60fced859ee8235b63d47240","28","071993","Single","English","French","Female","White or Caucasian","No","Graduate degree","No, currently not in school","N/A","N/A","N/A","9","8","7","1","4","0.766666676","stim/H160.jpg","76","76","0.66666666","4","1","3","","1","3","4","2","4","3","3","4","1","3","1","2","5","5","1","5","5","2","10","2","1","5","0","5","5","5","0","5","5","5","1","1","2","1","1","2","4","3","4","5","1","1","4","3","4","1","5","3","4","3","3","3","5","3","0","3","4","3","3","4","4","agree","43","","","","","","","","<div style=""font-size:60px;"">?</div>","76","5","1","0.8"
"image-keyboard-response","44","213480","0.0-11.0-0.5","ers5m2z9jlf1lvl","1","60fced859ee8235b63d47240","28","071993","Single","English","French","Female","White or Caucasian","No","Graduate degree","No, currently not in school","N/A","N/A","N/A","9","8","7","1","4","0.766666676","stim/H160.jpg","76","76","0.66666666","4","1","3","","1","3","4","2","4","3","3","4","1","3","1","2","5","5","1","5","5","2","10","2","1","5","0","5","5","5","0","5","5","5","1","1","2","1","1","2","4","3","4","5","1","1","4","3","4","1","5","3","4","3","3","3","5","3","0","3","4","3","3","4","4","agree","null","","","","","","","","stim/H080.jpg","null","","",""
"html-keyboard-response","45","213542","0.0-11.0-1.5","ers5m2z9jlf1lvl","1","60fced859ee8235b63d47240","28","071993","Single","English","French","Female","White or Caucasian","No","Graduate degree","No, currently not in school","N/A","N/A","N/A","9","8","7","1","4","0.766666676","stim/H160.jpg","76","76","0.66666666","4","1","3","","1","3","4","2","4","3","3","4","1","3","1","2","5","5","1","5","5","2","10","2","1","5","0","5","5","5","0","5","5","5","1","1","2","1","1","2","4","3","4","5","1","1","4","3","4","1","5","3","4","3","3","3","5","3","0","3","4","3","3","4","4","agree","61","","","","","","","","<div style=""font-size:60px;"">?</div>","65","6","1","0.8"
"image-keyboard-response","46","214544","0.0-11.0-0.6","ers5m2z9jlf1lvl","1","60fced859ee8235b63d47240","28","071993","Single","English","French","Female","White or Caucasian","No","Graduate degree","No, currently not in school","N/A","N/A","N/A","9","8","7","1","4","0.766666676","stim/H160.jpg","76","76","0.66666666","4","1","3","","1","3","4","2","4","3","3","4","1","3","1","2","5","5","1","5","5","2","10","2","1","5","0","5","5","5","0","5","5","5","1","1","2","1","1","2","4","3","4","5","1","1","4","3","4","1","5","3","4","3","3","3","5","3","0","3","4","3","3","4","4","agree","null","","","","","","","","stim/T240.jpg","null","","",""
"html-keyboard-response","47","215117","0.0-11.0-1.6","ers5m2z9jlf1lvl","1","60fced859ee8235b63d47240","28","071993","Single","English","French","Female","White or Caucasian","No","Graduate degree","No, currently not in school","N/A","N/A","N/A","9","8","7","1","4","0.766666676","stim/H160.jpg","76","76","0.66666666","4","1","3","","1","3","4","2","4","3","3","4","1","3","1","2","5","5","1","5","5","2","10","2","1","5","0","5","5","5","0","5","5","5","1","1","2","1","1","2","4","3","4","5","1","1","4","3","4","1","5","3","4","3","3","3","5","3","0","3","4","3","3","4","4","agree","572","","","","","","","","<div style=""font-size:60px;"">?</div>","65","7","1","0.8"
"image-keyboard-response","48","216135","0.0-11.0-0.7","ers5m2z9jlf1lvl","1","60fced859ee8235b63d47240","28","071993","Single","English","French","Female","White or Caucasian","No","Graduate degree","No, currently not in school","N/A","N/A","N/A","9","8","7","1","4","0.766666676","stim/H160.jpg","76","76","0.66666666","4","1","3","","1","3","4","2","4","3","3","4","1","3","1","2","5","5","1","5","5","2","10","2","1","5","0","5","5","5","0","5","5","5","1","1","2","1","1","2","4","3","4","5","1","1","4","3","4","1","5","3","4","3","3","3","5","3","0","3","4","3","3","4","4","agree","null","","","","","","","","stim/H070.jpg","null","","",""
"html-keyboard-response","49","216565","0.0-11.0-1.7","ers5m2z9jlf1lvl","1","60fced859ee8235b63d47240","28","071993","Single","English","French","Female","White or Caucasian","No","Graduate degree","No, currently not in school","N/A","N/A","N/A","9","8","7","1","4","0.766666676","stim/H160.jpg","76","76","0.66666666","4","1","3","","1","3","4","2","4","3","3","4","1","3","1","2","5","5","1","5","5","2","10","2","1","5","0","5","5","5","0","5","5","5","1","1","2","1","1","2","4","3","4","5","1","1","4","3","4","1","5","3","4","3","3","3","5","3","0","3","4","3","3","4","4","agree","429","","","","","","","","<div style=""font-size:60px;"">?</div>","76","8","1","0.8"
"image-keyboard-response","50","217587","0.0-11.0-0.8","ers5m2z9jlf1lvl","1","60fced859ee8235b63d47240","28","071993","Single","English","French","Female","White or Caucasian","No","Graduate degree","No, currently not in school","N/A","N/A","N/A","9","8","7","1","4","0.766666676","stim/H160.jpg","76","76","0.66666666","4","1","3","","1","3","4","2","4","3","3","4","1","3","1","2","5","5","1","5","5","2","10","2","1","5","0","5","5","5","0","5","5","5","1","1","2","1","1","2","4","3","4","5","1","1","4","3","4","1","5","3","4","3","3","3","5","3","0","3","4","3","3","4","4","agree","null","","","","","","","","stim/H230.jpg","null","","",""
"html-keyboard-response","51","217654","0.0-11.0-1.8","ers5m2z9jlf1lvl","1","60fced859ee8235b63d47240","28","071993","Single","English","French","Female","White or Caucasian","No","Graduate degree","No, currently not in school","N/A","N/A","N/A","9","8","7","1","4","0.766666676","stim/H160.jpg","76","76","0.66666666","4","1","3","","1","3","4","2","4","3","3","4","1","3","1","2","5","5","1","5","5","2","10","2","1","5","0","5","5","5","0","5","5","5","1","1","2","1","1","2","4","3","4","5","1","1","4","3","4","1","5","3","4","3","3","3","5","3","0","3","4","3","3","4","4","agree","66","","","","","","","","<div style=""font-size:60px;"">?</div>","76","9","1","0.8"
"image-keyboard-response","52","218664","0.0-11.0-0.9","ers5m2z9jlf1lvl","1","60fced859ee8235b63d47240","28","071993","Single","English","French","Female","White or Caucasian","No","Graduate degree","No, currently not in school","N/A","N/A","N/A","9","8","7","1","4","0.766666676","stim/H160.jpg","76","76","0.66666666","4","1","3","","1","3","4","2","4","3","3","4","1","3","1","2","5","5","1","5","5","2","10","2","1","5","0","5","5","5","0","5","5","5","1","1","2","1","1","2","4","3","4","5","1","1","4","3","4","1","5","3","4","3","3","3","5","3","0","3","4","3","3","4","4","agree","null","","","","","","","","stim/H020.jpg","null","","",""
"html-keyboard-response","53","218718","0.0-11.0-1.9","ers5m2z9jlf1lvl","1","60fced859ee8235b63d47240","28","071993","Single","English","French","Female","White or Caucasian","No","Graduate degree","No, currently not in school","N/A","N/A","N/A","9","8","7","1","4","0.766666676","stim/H160.jpg","76","76","0.66666666","4","1","3","","1","3","4","2","4","3","3","4","1","3","1","2","5","5","1","5","5","2","10","2","1","5","0","5","5","5","0","5","5","5","1","1","2","1","1","2","4","3","4","5","1","1","4","3","4","1","5","3","4","3","3","3","5","3","0","3","4","3","3","4","4","agree","53","","","","","","","","<div style=""font-size:60px;"">?</div>","65","10","1","0.8"
"image-keyboard-response","54","219729","0.0-11.0-0.10","ers5m2z9jlf1lvl","1","60fced859ee8235b63d47240","28","071993","Single","English","French","Female","White or Caucasian","No","Graduate degree","No, currently not in school","N/A","N/A","N/A","9","8","7","1","4","0.766666676","stim/H160.jpg","76","76","0.66666666","4","1","3","","1","3","4","2","4","3","3","4","1","3","1","2","5","5","1","5","5","2","10","2","1","5","0","5","5","5","0","5","5","5","1","1","2","1","1","2","4","3","4","5","1","1","4","3","4","1","5","3","4","3","3","3","5","3","0","3","4","3","3","4","4","agree","null","","","","","","","","stim/H230.jpg","null","","",""
"html-keyboard-response","55","221028","0.0-11.0-1.10","ers5m2z9jlf1lvl","1","60fced859ee8235b63d47240","28","071993","Single","English","French","Female","White or Caucasian","No","Graduate degree","No, currently not in school","N/A","N/A","N/A","9","8","7","1","4","0.766666676","stim/H160.jpg","76","76","0.66666666","4","1","3","","1","3","4","2","4","3","3","4","1","3","1","2","5","5","1","5","5","2","10","2","1","5","0","5","5","5","0","5","5","5","1","1","2","1","1","2","4","3","4","5","1","1","4","3","4","1","5","3","4","3","3","3","5","3","0","3","4","3","3","4","4","agree","1297","","","","","","","","<div style=""font-size:60px;"">?</div>","76","11","1","0.8"
"image-keyboard-response","56","222051","0.0-11.0-0.11","ers5m2z9jlf1lvl","1","60fced859ee8235b63d47240","28","071993","Single","English","French","Female","White or Caucasian","No","Graduate degree","No, currently not in school","N/A","N/A","N/A","9","8","7","1","4","0.766666676","stim/H160.jpg","76","76","0.66666666","4","1","3","","1","3","4","2","4","3","3","4","1","3","1","2","5","5","1","5","5","2","10","2","1","5","0","5","5","5","0","5","5","5","1","1","2","1","1","2","4","3","4","5","1","1","4","3","4","1","5","3","4","3","3","3","5","3","0","3","4","3","3","4","4","agree","null","","","","","","","","stim/T290.jpg","null","","",""
"html-keyboard-response","57","222663","0.0-11.0-1.11","ers5m2z9jlf1lvl","1","60fced859ee8235b63d47240","28","071993","Single","English","French","Female","White or Caucasian","No","Graduate degree","No, currently not in school","N/A","N/A","N/A","9","8","7","1","4","0.766666676","stim/H160.jpg","76","76","0.66666666","4","1","3","","1","3","4","2","4","3","3","4","1","3","1","2","5","5","1","5","5","2","10","2","1","5","0","5","5","5","0","5","5","5","1","1","2","1","1","2","4","3","4","5","1","1","4","3","4","1","5","3","4","3","3","3","5","3","0","3","4","3","3","4","4","agree","610","","","","","","","","<div style=""font-size:60px;"">?</div>","65","12","1","0.8"
"image-keyboard-response","58","223687","0.0-11.0-0.12","ers5m2z9jlf1lvl","1","60fced859ee8235b63d47240","28","071993","Single","English","French","Female","White or Caucasian","No","Graduate degree","No, currently not in school","N/A","N/A","N/A","9","8","7","1","4","0.766666676","stim/H160.jpg","76","76","0.66666666","4","1","3","","1","3","4","2","4","3","3","4","1","3","1","2","5","5","1","5","5","2","10","2","1","5","0","5","5","5","0","5","5","5","1","1","2","1","1","2","4","3","4","5","1","1","4","3","4","1","5","3","4","3","3","3","5","3","0","3","4","3","3","4","4","agree","null","","","","","","","","stim/H060.jpg","null","","",""
"html-keyboard-response","59","224100","0.0-11.0-1.12","ers5m2z9jlf1lvl","1","60fced859ee8235b63d47240","28","071993","Single","English","French","Female","White or Caucasian","No","Graduate degree","No, currently not in school","N/A","N/A","N/A","9","8","7","1","4","0.766666676","stim/H160.jpg","76","76","0.66666666","4","1","3","","1","3","4","2","4","3","3","4","1","3","1","2","5","5","1","5","5","2","10","2","1","5","0","5","5","5","0","5","5","5","1","1","2","1","1","2","4","3","4","5","1","1","4","3","4","1","5","3","4","3","3","3","5","3","0","3","4","3","3","4","4","agree","412","","","","","","","","<div style=""font-size:60px;"">?</div>","65","13","1","0.8"
"image-keyboard-response","60","225117","0.0-11.0-0.13","ers5m2z9jlf1lvl","1","60fced859ee8235b63d47240","28","071993","Single","English","French","Female","White or Caucasian","No","Graduate degree","No, currently not in school","N/A","N/A","N/A","9","8","7","1","4","0.766666676","stim/H160.jpg","76","76","0.66666666","4","1","3","","1","3","4","2","4","3","3","4","1","3","1","2","5","5","1","5","5","2","10","2","1","5","0","5","5","5","0","5","5","5","1","1","2","1","1","2","4","3","4","5","1","1","4","3","4","1","5","3","4","3","3","3","5","3","0","3","4","3","3","4","4","agree","null","","","","","","","","stim/H110.jpg","null","","",""
"html-keyboard-response","61","225272","0.0-11.0-1.13","ers5m2z9jlf1lvl","1","60fced859ee8235b63d47240","28","071993","Single","English","French","Female","White or Caucasian","No","Graduate degree","No, currently not in school","N/A","N/A","N/A","9","8","7","1","4","0.766666676","stim/H160.jpg","76","76","0.66666666","4","1","3","","1","3","4","2","4","3","3","4","1","3","1","2","5","5","1","5","5","2","10","2","1","5","0","5","5","5","0","5","5","5","1","1","2","1","1","2","4","3","4","5","1","1","4","3","4","1","5","3","4","3","3","3","5","3","0","3","4","3","3","4","4","agree","154","","","","","","","","<div style=""font-size:60px;"">?</div>","76","14","1","0.8"
"image-keyboard-response","62","226302","0.0-11.0-0.14","ers5m2z9jlf1lvl","1","60fced859ee8235b63d47240","28","071993","Single","English","French","Female","White or Caucasian","No","Graduate degree","No, currently not in school","N/A","N/A","N/A","9","8","7","1","4","0.766666676","stim/H160.jpg","76","76","0.66666666","4","1","3","","1","3","4","2","4","3","3","4","1","3","1","2","5","5","1","5","5","2","10","2","1","5","0","5","5","5","0","5","5","5","1","1","2","1","1","2","4","3","4","5","1","1","4","3","4","1","5","3","4","3","3","3","5","3","0","3","4","3","3","4","4","agree","null","","","","","","","","stim/H250.jpg","null","","",""
"html-keyboard-response","63","226589","0.0-11.0-1.14","ers5m2z9jlf1lvl","1","60fced859ee8235b63d47240","28","071993","Single","English","French","Female","White or Caucasian","No","Graduate degree","No, currently not in school","N/A","N/A","N/A","9","8","7","1","4","0.766666676","stim/H160.jpg","76","76","0.66666666","4","1","3","","1","3","4","2","4","3","3","4","1","3","1","2","5","5","1","5","5","2","10","2","1","5","0","5","5","5","0","5","5","5","1","1","2","1","1","2","4","3","4","5","1","1","4","3","4","1","5","3","4","3","3","3","5","3","0","3","4","3","3","4","4","agree","287","","","","","","","","<div style=""font-size:60px;"">?</div>","76","15","1","0.8"
"image-keyboard-response","64","227598","0.0-11.0-0.15","ers5m2z9jlf1lvl","1","60fced859ee8235b63d47240","28","071993","Single","English","French","Female","White or Caucasian","No","Graduate degree","No, currently not in school","N/A","N/A","N/A","9","8","7","1","4","0.766666676","stim/H160.jpg","76","76","0.66666666","4","1","3","","1","3","4","2","4","3","3","4","1","3","1","2","5","5","1","5","5","2","10","2","1","5","0","5","5","5","0","5","5","5","1","1","2","1","1","2","4","3","4","5","1","1","4","3","4","1","5","3","4","3","3","3","5","3","0","3","4","3","3","4","4","agree","null","","","","","","","","stim/H030.jpg","null","","",""
"html-keyboard-response","65","227729","0.0-11.0-1.15","ers5m2z9jlf1lvl","1","60fced859ee8235b63d47240","28","071993","Single","English","French","Female","White or Caucasian","No","Graduate degree","No, currently not in school","N/A","N/A","N/A","9","8","7","1","4","0.766666676","stim/H160.jpg","76","76","0.66666666","4","1","3","","1","3","4","2","4","3","3","4","1","3","1","2","5","5","1","5","5","2","10","2","1","5","0","5","5","5","0","5","5","5","1","1","2","1","1","2","4","3","4","5","1","1","4","3","4","1","5","3","4","3","3","3","5","3","0","3","4","3","3","4","4","agree","131","","","","","","","","<div style=""font-size:60px;"">?</div>","65","16","1","0.8"
"image-keyboard-response","66","228740","0.0-11.0-0.16","ers5m2z9jlf1lvl","1","60fced859ee8235b63d47240","28","071993","Single","English","French","Female","White or Caucasian","No","Graduate degree","No, currently not in school","N/A","N/A","N/A","9","8","7","1","4","0.766666676","stim/H160.jpg","76","76","0.66666666","4","1","3","","1","3","4","2","4","3","3","4","1","3","1","2","5","5","1","5","5","2","10","2","1","5","0","5","5","5","0","5","5","5","1","1","2","1","1","2","4","3","4","5","1","1","4","3","4","1","5","3","4","3","3","3","5","3","0","3","4","3","3","4","4","agree","null","","","","","","","","stim/H170.jpg","null","","",""
"html-keyboard-response","67","228790","0.0-11.0-1.16","ers5m2z9jlf1lvl","1","60fced859ee8235b63d47240","28","071993","Single","English","French","Female","White or Caucasian","No","Graduate degree","No, currently not in school","N/A","N/A","N/A","9","8","7","1","4","0.766666676","stim/H160.jpg","76","76","0.66666666","4","1","3","","1","3","4","2","4","3","3","4","1","3","1","2","5","5","1","5","5","2","10","2","1","5","0","5","5","5","0","5","5","5","1","1","2","1","1","2","4","3","4","5","1","1","4","3","4","1","5","3","4","3","3","3","5","3","0","3","4","3","3","4","4","agree","50","","","","","","","","<div style=""font-size:60px;"">?</div>","76","17","1","0.8"
"image-keyboard-response","68","229808","0.0-11.0-0.17","ers5m2z9jlf1lvl","1","60fced859ee8235b63d47240","28","071993","Single","English","French","Female","White or Caucasian","No","Graduate degree","No, currently not in school","N/A","N/A","N/A","9","8","7","1","4","0.766666676","stim/H160.jpg","76","76","0.66666666","4","1","3","","1","3","4","2","4","3","3","4","1","3","1","2","5","5","1","5","5","2","10","2","1","5","0","5","5","5","0","5","5","5","1","1","2","1","1","2","4","3","4","5","1","1","4","3","4","1","5","3","4","3","3","3","5","3","0","3","4","3","3","4","4","agree","null","","","","","","","","stim/H190.jpg","null","","",""
"html-keyboard-response","69","230024","0.0-11.0-1.17","ers5m2z9jlf1lvl","1","60fced859ee8235b63d47240","28","071993","Single","English","French","Female","White or Caucasian","No","Graduate degree","No, currently not in school","N/A","N/A","N/A","9","8","7","1","4","0.766666676","stim/H160.jpg","76","76","0.66666666","4","1","3","","1","3","4","2","4","3","3","4","1","3","1","2","5","5","1","5","5","2","10","2","1","5","0","5","5","5","0","5","5","5","1","1","2","1","1","2","4","3","4","5","1","1","4","3","4","1","5","3","4","3","3","3","5","3","0","3","4","3","3","4","4","agree","215","","","","","","","","<div style=""font-size:60px;"">?</div>","76","18","1","0.8"
"image-keyboard-response","70","231039","0.0-11.0-0.18","ers5m2z9jlf1lvl","1","60fced859ee8235b63d47240","28","071993","Single","English","French","Female","White or Caucasian","No","Graduate degree","No, currently not in school","N/A","N/A","N/A","9","8","7","1","4","0.766666676","stim/H160.jpg","76","76","0.66666666","4","1","3","","1","3","4","2","4","3","3","4","1","3","1","2","5","5","1","5","5","2","10","2","1","5","0","5","5","5","0","5","5","5","1","1","2","1","1","2","4","3","4","5","1","1","4","3","4","1","5","3","4","3","3","3","5","3","0","3","4","3","3","4","4","agree","null","","","","","","","","stim/T100.jpg","null","","",""
"html-keyboard-response","71","231112","0.0-11.0-1.18","ers5m2z9jlf1lvl","1","60fced859ee8235b63d47240","28","071993","Single","English","French","Female","White or Caucasian","No","Graduate degree","No, currently not in school","N/A","N/A","N/A","9","8","7","1","4","0.766666676","stim/H160.jpg","76","76","0.66666666","4","1","3","","1","3","4","2","4","3","3","4","1","3","1","2","5","5","1","5","5","2","10","2","1","5","0","5","5","5","0","5","5","5","1","1","2","1","1","2","4","3","4","5","1","1","4","3","4","1","5","3","4","3","3","3","5","3","0","3","4","3","3","4","4","agree","72","","","","","","","","<div style=""font-size:60px;"">?</div>","65","19","1","0.8"
"image-keyboard-response","72","232135","0.0-11.0-0.19","ers5m2z9jlf1lvl","1","60fced859ee8235b63d47240","28","071993","Single","English","French","Female","White or Caucasian","No","Graduate degree","No, currently not in school","N/A","N/A","N/A","9","8","7","1","4","0.766666676","stim/H160.jpg","76","76","0.66666666","4","1","3","","1","3","4","2","4","3","3","4","1","3","1","2","5","5","1","5","5","2","10","2","1","5","0","5","5","5","0","5","5","5","1","1","2","1","1","2","4","3","4","5","1","1","4","3","4","1","5","3","4","3","3","3","5","3","0","3","4","3","3","4","4","agree","null","","","","","","","","stim/T280.jpg","null","","",""
"html-keyboard-response","73","232408","0.0-11.0-1.19","ers5m2z9jlf1lvl","1","60fced859ee8235b63d47240","28","071993","Single","English","French","Female","White or Caucasian","No","Graduate degree","No, currently not in school","N/A","N/A","N/A","9","8","7","1","4","0.766666676","stim/H160.jpg","76","76","0.66666666","4","1","3","","1","3","4","2","4","3","3","4","1","3","1","2","5","5","1","5","5","2","10","2","1","5","0","5","5","5","0","5","5","5","1","1","2","1","1","2","4","3","4","5","1","1","4","3","4","1","5","3","4","3","3","3","5","3","0","3","4","3","3","4","4","agree","273","","","","","","","","<div style=""font-size:60px;"">?</div>","65","20","1","0.8"
"image-keyboard-response","74","233415","0.0-11.0-0.20","ers5m2z9jlf1lvl","1","60fced859ee8235b63d47240","28","071993","Single","English","French","Female","White or Caucasian","No","Graduate degree","No, currently not in school","N/A","N/A","N/A","9","8","7","1","4","0.766666676","stim/H160.jpg","76","76","0.66666666","4","1","3","","1","3","4","2","4","3","3","4","1","3","1","2","5","5","1","5","5","2","10","2","1","5","0","5","5","5","0","5","5","5","1","1","2","1","1","2","4","3","4","5","1","1","4","3","4","1","5","3","4","3","3","3","5","3","0","3","4","3","3","4","4","agree","null","","","","","","","","stim/H140.jpg","null","","",""
"html-keyboard-response","75","233470","0.0-11.0-1.20","ers5m2z9jlf1lvl","1","60fced859ee8235b63d47240","28","071993","Single","English","French","Female","White or Caucasian","No","Graduate degree","No, currently not in school","N/A","N/A","N/A","9","8","7","1","4","0.766666676","stim/H160.jpg","76","76","0.66666666","4","1","3","","1","3","4","2","4","3","3","4","1","3","1","2","5","5","1","5","5","2","10","2","1","5","0","5","5","5","0","5","5","5","1","1","2","1","1","2","4","3","4","5","1","1","4","3","4","1","5","3","4","3","3","3","5","3","0","3","4","3","3","4","4","agree","54","","","","","","","","<div style=""font-size:60px;"">?</div>","76","21","1","0.8"
"image-keyboard-response","76","234489","0.0-11.0-0.21","ers5m2z9jlf1lvl","1","60fced859ee8235b63d47240","28","071993","Single","English","French","Female","White or Caucasian","No","Graduate degree","No, currently not in school","N/A","N/A","N/A","9","8","7","1","4","0.766666676","stim/H160.jpg","76","76","0.66666666","4","1","3","","1","3","4","2","4","3","3","4","1","3","1","2","5","5","1","5","5","2","10","2","1","5","0","5","5","5","0","5","5","5","1","1","2","1","1","2","4","3","4","5","1","1","4","3","4","1","5","3","4","3","3","3","5","3","0","3","4","3","3","4","4","agree","null","","","","","","","","stim/H180.jpg","null","","",""
"html-keyboard-response","77","234508","0.0-11.0-1.21","ers5m2z9jlf1lvl","1","60fced859ee8235b63d47240","28","071993","Single","English","French","Female","White or Caucasian","No","Graduate degree","No, currently not in school","N/A","N/A","N/A","9","8","7","1","4","0.766666676","stim/H160.jpg","76","76","0.66666666","4","1","3","","1","3","4","2","4","3","3","4","1","3","1","2","5","5","1","5","5","2","10","2","1","5","0","5","5","5","0","5","5","5","1","1","2","1","1","2","4","3","4","5","1","1","4","3","4","1","5","3","4","3","3","3","5","3","0","3","4","3","3","4","4","agree","18","","","","","","","","<div style=""font-size:60px;"">?</div>","76","22","1","0.8"
"image-keyboard-response","78","235520","0.0-11.0-0.22","ers5m2z9jlf1lvl","1","60fced859ee8235b63d47240","28","071993","Single","English","French","Female","White or Caucasian","No","Graduate degree","No, currently not in school","N/A","N/A","N/A","9","8","7","1","4","0.766666676","stim/H160.jpg","76","76","0.66666666","4","1","3","","1","3","4","2","4","3","3","4","1","3","1","2","5","5","1","5","5","2","10","2","1","5","0","5","5","5","0","5","5","5","1","1","2","1","1","2","4","3","4","5","1","1","4","3","4","1","5","3","4","3","3","3","5","3","0","3","4","3","3","4","4","agree","null","","","","","","","","stim/H190.jpg","null","","",""
"html-keyboard-response","79","235778","0.0-11.0-1.22","ers5m2z9jlf1lvl","1","60fced859ee8235b63d47240","28","071993","Single","English","French","Female","White or Caucasian","No","Graduate degree","No, currently not in school","N/A","N/A","N/A","9","8","7","1","4","0.766666676","stim/H160.jpg","76","76","0.66666666","4","1","3","","1","3","4","2","4","3","3","4","1","3","1","2","5","5","1","5","5","2","10","2","1","5","0","5","5","5","0","5","5","5","1","1","2","1","1","2","4","3","4","5","1","1","4","3","4","1","5","3","4","3","3","3","5","3","0","3","4","3","3","4","4","agree","257","","","","","","","","<div style=""font-size:60px;"">?</div>","76","23","1","0.8"
"image-keyboard-response","80","236788","0.0-11.0-0.23","ers5m2z9jlf1lvl","1","60fced859ee8235b63d47240","28","071993","Single","English","French","Female","White or Caucasian","No","Graduate degree","No, currently not in school","N/A","N/A","N/A","9","8","7","1","4","0.766666676","stim/H160.jpg","76","76","0.66666666","4","1","3","","1","3","4","2","4","3","3","4","1","3","1","2","5","5","1","5","5","2","10","2","1","5","0","5","5","5","0","5","5","5","1","1","2","1","1","2","4","3","4","5","1","1","4","3","4","1","5","3","4","3","3","3","5","3","0","3","4","3","3","4","4","agree","null","","","","","","","","stim/T200.jpg","null","","",""
"html-keyboard-response","81","237648","0.0-11.0-1.23","ers5m2z9jlf1lvl","1","60fced859ee8235b63d47240","28","071993","Single","English","French","Female","White or Caucasian","No","Graduate degree","No, currently not in school","N/A","N/A","N/A","9","8","7","1","4","0.766666676","stim/H160.jpg","76","76","0.66666666","4","1","3","","1","3","4","2","4","3","3","4","1","3","1","2","5","5","1","5","5","2","10","2","1","5","0","5","5","5","0","5","5","5","1","1","2","1","1","2","4","3","4","5","1","1","4","3","4","1","5","3","4","3","3","3","5","3","0","3","4","3","3","4","4","agree","859","","","","","","","","<div style=""font-size:60px;"">?</div>","65","24","1","0.8"
"image-keyboard-response","82","238673","0.0-11.0-0.24","ers5m2z9jlf1lvl","1","60fced859ee8235b63d47240","28","071993","Single","English","French","Female","White or Caucasian","No","Graduate degree","No, currently not in school","N/A","N/A","N/A","9","8","7","1","4","0.766666676","stim/H160.jpg","76","76","0.66666666","4","1","3","","1","3","4","2","4","3","3","4","1","3","1","2","5","5","1","5","5","2","10","2","1","5","0","5","5","5","0","5","5","5","1","1","2","1","1","2","4","3","4","5","1","1","4","3","4","1","5","3","4","3","3","3","5","3","0","3","4","3","3","4","4","agree","null","","","","","","","","stim/H270.jpg","null","","",""
"html-keyboard-response","83","239044","0.0-11.0-1.24","ers5m2z9jlf1lvl","1","60fced859ee8235b63d47240","28","071993","Single","English","French","Female","White or Caucasian","No","Graduate degree","No, currently not in school","N/A","N/A","N/A","9","8","7","1","4","0.766666676","stim/H160.jpg","76","76","0.66666666","4","1","3","","1","3","4","2","4","3","3","4","1","3","1","2","5","5","1","5","5","2","10","2","1","5","0","5","5","5","0","5","5","5","1","1","2","1","1","2","4","3","4","5","1","1","4","3","4","1","5","3","4","3","3","3","5","3","0","3","4","3","3","4","4","agree","371","","","","","","","","<div style=""font-size:60px;"">?</div>","76","25","1","0.8"
"image-keyboard-response","84","240065","0.0-11.0-0.25","ers5m2z9jlf1lvl","1","60fced859ee8235b63d47240","28","071993","Single","English","French","Female","White or Caucasian","No","Graduate degree","No, currently not in school","N/A","N/A","N/A","9","8","7","1","4","0.766666676","stim/H160.jpg","76","76","0.66666666","4","1","3","","1","3","4","2","4","3","3","4","1","3","1","2","5","5","1","5","5","2","10","2","1","5","0","5","5","5","0","5","5","5","1","1","2","1","1","2","4","3","4","5","1","1","4","3","4","1","5","3","4","3","3","3","5","3","0","3","4","3","3","4","4","agree","null","","","","","","","","stim/H110.jpg","null","","",""
"html-keyboard-response","85","240122","0.0-11.0-1.25","ers5m2z9jlf1lvl","1","60fced859ee8235b63d47240","28","071993","Single","English","French","Female","White or Caucasian","No","Graduate degree","No, currently not in school","N/A","N/A","N/A","9","8","7","1","4","0.766666676","stim/H160.jpg","76","76","0.66666666","4","1","3","","1","3","4","2","4","3","3","4","1","3","1","2","5","5","1","5","5","2","10","2","1","5","0","5","5","5","0","5","5","5","1","1","2","1","1","2","4","3","4","5","1","1","4","3","4","1","5","3","4","3","3","3","5","3","0","3","4","3","3","4","4","agree","56","","","","","","","","<div style=""font-size:60px;"">?</div>","76","26","1","0.8"
"image-keyboard-response","86","241131","0.0-11.0-0.26","ers5m2z9jlf1lvl","1","60fced859ee8235b63d47240","28","071993","Single","English","French","Female","White or Caucasian","No","Graduate degree","No, currently not in school","N/A","N/A","N/A","9","8","7","1","4","0.766666676","stim/H160.jpg","76","76","0.66666666","4","1","3","","1","3","4","2","4","3","3","4","1","3","1","2","5","5","1","5","5","2","10","2","1","5","0","5","5","5","0","5","5","5","1","1","2","1","1","2","4","3","4","5","1","1","4","3","4","1","5","3","4","3","3","3","5","3","0","3","4","3","3","4","4","agree","null","","","","","","","","stim/H140.jpg","null","","",""
"html-keyboard-response","87","241143","0.0-11.0-1.26","ers5m2z9jlf1lvl","1","60fced859ee8235b63d47240","28","071993","Single","English","French","Female","White or Caucasian","No","Graduate degree","No, currently not in school","N/A","N/A","N/A","9","8","7","1","4","0.766666676","stim/H160.jpg","76","76","0.66666666","4","1","3","","1","3","4","2","4","3","3","4","1","3","1","2","5","5","1","5","5","2","10","2","1","5","0","5","5","5","0","5","5","5","1","1","2","1","1","2","4","3","4","5","1","1","4","3","4","1","5","3","4","3","3","3","5","3","0","3","4","3","3","4","4","agree","11","","","","","","","","<div style=""font-size:60px;"">?</div>","76","27","1","0.8"
"image-keyboard-response","88","242150","0.0-11.0-0.27","ers5m2z9jlf1lvl","1","60fced859ee8235b63d47240","28","071993","Single","English","French","Female","White or Caucasian","No","Graduate degree","No, currently not in school","N/A","N/A","N/A","9","8","7","1","4","0.766666676","stim/H160.jpg","76","76","0.66666666","4","1","3","","1","3","4","2","4","3","3","4","1","3","1","2","5","5","1","5","5","2","10","2","1","5","0","5","5","5","0","5","5","5","1","1","2","1","1","2","4","3","4","5","1","1","4","3","4","1","5","3","4","3","3","3","5","3","0","3","4","3","3","4","4","agree","null","","","","","","","","stim/T220.jpg","null","","",""
"html-keyboard-response","89","242561","0.0-11.0-1.27","ers5m2z9jlf1lvl","1","60fced859ee8235b63d47240","28","071993","Single","English","French","Female","White or Caucasian","No","Graduate degree","No, currently not in school","N/A","N/A","N/A","9","8","7","1","4","0.766666676","stim/H160.jpg","76","76","0.66666666","4","1","3","","1","3","4","2","4","3","3","4","1","3","1","2","5","5","1","5","5","2","10","2","1","5","0","5","5","5","0","5","5","5","1","1","2","1","1","2","4","3","4","5","1","1","4","3","4","1","5","3","4","3","3","3","5","3","0","3","4","3","3","4","4","agree","410","","","","","","","","<div style=""font-size:60px;"">?</div>","65","28","1","0.8"
"image-keyboard-response","90","243585","0.0-11.0-0.28","ers5m2z9jlf1lvl","1","60fced859ee8235b63d47240","28","071993","Single","English","French","Female","White or Caucasian","No","Graduate degree","No, currently not in school","N/A","N/A","N/A","9","8","7","1","4","0.766666676","stim/H160.jpg","76","76","0.66666666","4","1","3","","1","3","4","2","4","3","3","4","1","3","1","2","5","5","1","5","5","2","10","2","1","5","0","5","5","5","0","5","5","5","1","1","2","1","1","2","4","3","4","5","1","1","4","3","4","1","5","3","4","3","3","3","5","3","0","3","4","3","3","4","4","agree","null","","","","","","","","stim/H020.jpg","null","","",""
"html-keyboard-response","91","243939","0.0-11.0-1.28","ers5m2z9jlf1lvl","1","60fced859ee8235b63d47240","28","071993","Single","English","French","Female","White or Caucasian","No","Graduate degree","No, currently not in school","N/A","N/A","N/A","9","8","7","1","4","0.766666676","stim/H160.jpg","76","76","0.66666666","4","1","3","","1","3","4","2","4","3","3","4","1","3","1","2","5","5","1","5","5","2","10","2","1","5","0","5","5","5","0","5","5","5","1","1","2","1","1","2","4","3","4","5","1","1","4","3","4","1","5","3","4","3","3","3","5","3","0","3","4","3","3","4","4","agree","354","","","","","","","","<div style=""font-size:60px;"">?</div>","65","29","1","0.8"
"image-keyboard-response","92","244953","0.0-11.0-0.29","ers5m2z9jlf1lvl","1","60fced859ee8235b63d47240","28","071993","Single","English","French","Female","White or Caucasian","No","Graduate degree","No, currently not in school","N/A","N/A","N/A","9","8","7","1","4","0.766666676","stim/H160.jpg","76","76","0.66666666","4","1","3","","1","3","4","2","4","3","3","4","1","3","1","2","5","5","1","5","5","2","10","2","1","5","0","5","5","5","0","5","5","5","1","1","2","1","1","2","4","3","4","5","1","1","4","3","4","1","5","3","4","3","3","3","5","3","0","3","4","3","3","4","4","agree","null","","","","","","","","stim/H250.jpg","null","","",""
"html-keyboard-response","93","245384","0.0-11.0-1.29","ers5m2z9jlf1lvl","1","60fced859ee8235b63d47240","28","071993","Single","English","French","Female","White or Caucasian","No","Graduate degree","No, currently not in school","N/A","N/A","N/A","9","8","7","1","4","0.766666676","stim/H160.jpg","76","76","0.66666666","4","1","3","","1","3","4","2","4","3","3","4","1","3","1","2","5","5","1","5","5","2","10","2","1","5","0","5","5","5","0","5","5","5","1","1","2","1","1","2","4","3","4","5","1","1","4","3","4","1","5","3","4","3","3","3","5","3","0","3","4","3","3","4","4","agree","430","","","","","","","","<div style=""font-size:60px;"">?</div>","76","30","1","0.8"
"image-keyboard-response","94","246395","0.0-11.0-0.30","ers5m2z9jlf1lvl","1","60fced859ee8235b63d47240","28","071993","Single","English","French","Female","White or Caucasian","No","Graduate degree","No, currently not in school","N/A","N/A","N/A","9","8","7","1","4","0.766666676","stim/H160.jpg","76","76","0.66666666","4","1","3","","1","3","4","2","4","3","3","4","1","3","1","2","5","5","1","5","5","2","10","2","1","5","0","5","5","5","0","5","5","5","1","1","2","1","1","2","4","3","4","5","1","1","4","3","4","1","5","3","4","3","3","3","5","3","0","3","4","3","3","4","4","agree","null","","","","","","","","stim/H210.jpg","null","","",""
"html-keyboard-response","95","246402","0.0-11.0-1.30","ers5m2z9jlf1lvl","1","60fced859ee8235b63d47240","28","071993","Single","English","French","Female","White or Caucasian","No","Graduate degree","No, currently not in school","N/A","N/A","N/A","9","8","7","1","4","0.766666676","stim/H160.jpg","76","76","0.66666666","4","1","3","","1","3","4","2","4","3","3","4","1","3","1","2","5","5","1","5","5","2","10","2","1","5","0","5","5","5","0","5","5","5","1","1","2","1","1","2","4","3","4","5","1","1","4","3","4","1","5","3","4","3","3","3","5","3","0","3","4","3","3","4","4","agree","5","","","","","","","","<div style=""font-size:60px;"">?</div>","76","31","1","0.8"
"image-keyboard-response","96","247418","0.0-11.0-0.31","ers5m2z9jlf1lvl","1","60fced859ee8235b63d47240","28","071993","Single","English","French","Female","White or Caucasian","No","Graduate degree","No, currently not in school","N/A","N/A","N/A","9","8","7","1","4","0.766666676","stim/H160.jpg","76","76","0.66666666","4","1","3","","1","3","4","2","4","3","3","4","1","3","1","2","5","5","1","5","5","2","10","2","1","5","0","5","5","5","0","5","5","5","1","1","2","1","1","2","4","3","4","5","1","1","4","3","4","1","5","3","4","3","3","3","5","3","0","3","4","3","3","4","4","agree","null","","","","","","","","stim/T300.jpg","null","","",""
"html-keyboard-response","97","247509","0.0-11.0-1.31","ers5m2z9jlf1lvl","1","60fced859ee8235b63d47240","28","071993","Single","English","French","Female","White or Caucasian","No","Graduate degree","No, currently not in school","N/A","N/A","N/A","9","8","7","1","4","0.766666676","stim/H160.jpg","76","76","0.66666666","4","1","3","","1","3","4","2","4","3","3","4","1","3","1","2","5","5","1","5","5","2","10","2","1","5","0","5","5","5","0","5","5","5","1","1","2","1","1","2","4","3","4","5","1","1","4","3","4","1","5","3","4","3","3","3","5","3","0","3","4","3","3","4","4","agree","91","","","","","","","","<div style=""font-size:60px;"">?</div>","65","32","1","0.8"
"image-keyboard-response","98","248517","0.0-11.0-0.32","ers5m2z9jlf1lvl","1","60fced859ee8235b63d47240","28","071993","Single","English","French","Female","White or Caucasian","No","Graduate degree","No, currently not in school","N/A","N/A","N/A","9","8","7","1","4","0.766666676","stim/H160.jpg","76","76","0.66666666","4","1","3","","1","3","4","2","4","3","3","4","1","3","1","2","5","5","1","5","5","2","10","2","1","5","0","5","5","5","0","5","5","5","1","1","2","1","1","2","4","3","4","5","1","1","4","3","4","1","5","3","4","3","3","3","5","3","0","3","4","3","3","4","4","agree","null","","","","","","","","stim/T240.jpg","null","","",""
"html-keyboard-response","99","249137","0.0-11.0-1.32","ers5m2z9jlf1lvl","1","60fced859ee8235b63d47240","28","071993","Single","English","French","Female","White or Caucasian","No","Graduate degree","No, currently not in school","N/A","N/A","N/A","9","8","7","1","4","0.766666676","stim/H160.jpg","76","76","0.66666666","4","1","3","","1","3","4","2","4","3","3","4","1","3","1","2","5","5","1","5","5","2","10","2","1","5","0","5","5","5","0","5","5","5","1","1","2","1","1","2","4","3","4","5","1","1","4","3","4","1","5","3","4","3","3","3","5","3","0","3","4","3","3","4","4","agree","620","","","","","","","","<div style=""font-size:60px;"">?</div>","65","33","1","0.8"
"image-keyboard-response","100","250149","0.0-11.0-0.33","ers5m2z9jlf1lvl","1","60fced859ee8235b63d47240","28","071993","Single","English","French","Female","White or Caucasian","No","Graduate degree","No, currently not in school","N/A","N/A","N/A","9","8","7","1","4","0.766666676","stim/H160.jpg","76","76","0.66666666","4","1","3","","1","3","4","2","4","3","3","4","1","3","1","2","5","5","1","5","5","2","10","2","1","5","0","5","5","5","0","5","5","5","1","1","2","1","1","2","4","3","4","5","1","1","4","3","4","1","5","3","4","3","3","3","5","3","0","3","4","3","3","4","4","agree","null","","","","","","","","stim/H250.jpg","null","","",""
"html-keyboard-response","101","250588","0.0-11.0-1.33","ers5m2z9jlf1lvl","1","60fced859ee8235b63d47240","28","071993","Single","English","French","Female","White or Caucasian","No","Graduate degree","No, currently not in school","N/A","N/A","N/A","9","8","7","1","4","0.766666676","stim/H160.jpg","76","76","0.66666666","4","1","3","","1","3","4","2","4","3","3","4","1","3","1","2","5","5","1","5","5","2","10","2","1","5","0","5","5","5","0","5","5","5","1","1","2","1","1","2","4","3","4","5","1","1","4","3","4","1","5","3","4","3","3","3","5","3","0","3","4","3","3","4","4","agree","437","","","","","","","","<div style=""font-size:60px;"">?</div>","76","34","1","0.8"
"image-keyboard-response","102","251592","0.0-11.0-0.34","ers5m2z9jlf1lvl","1","60fced859ee8235b63d47240","28","071993","Single","English","French","Female","White or Caucasian","No","Graduate degree","No, currently not in school","N/A","N/A","N/A","9","8","7","1","4","0.766666676","stim/H160.jpg","76","76","0.66666666","4","1","3","","1","3","4","2","4","3","3","4","1","3","1","2","5","5","1","5","5","2","10","2","1","5","0","5","5","5","0","5","5","5","1","1","2","1","1","2","4","3","4","5","1","1","4","3","4","1","5","3","4","3","3","3","5","3","0","3","4","3","3","4","4","agree","null","","","","","","","","stim/H070.jpg","null","","",""
"html-keyboard-response","103","251980","0.0-11.0-1.34","ers5m2z9jlf1lvl","1","60fced859ee8235b63d47240","28","071993","Single","English","French","Female","White or Caucasian","No","Graduate degree","No, currently not in school","N/A","N/A","N/A","9","8","7","1","4","0.766666676","stim/H160.jpg","76","76","0.66666666","4","1","3","","1","3","4","2","4","3","3","4","1","3","1","2","5","5","1","5","5","2","10","2","1","5","0","5","5","5","0","5","5","5","1","1","2","1","1","2","4","3","4","5","1","1","4","3","4","1","5","3","4","3","3","3","5","3","0","3","4","3","3","4","4","agree","389","","","","","","","","<div style=""font-size:60px;"">?</div>","76","35","1","0.8"
"image-keyboard-response","104","252998","0.0-11.0-0.35","ers5m2z9jlf1lvl","1","60fced859ee8235b63d47240","28","071993","Single","English","French","Female","White or Caucasian","No","Graduate degree","No, currently not in school","N/A","N/A","N/A","9","8","7","1","4","0.766666676","stim/H160.jpg","76","76","0.66666666","4","1","3","","1","3","4","2","4","3","3","4","1","3","1","2","5","5","1","5","5","2","10","2","1","5","0","5","5","5","0","5","5","5","1","1","2","1","1","2","4","3","4","5","1","1","4","3","4","1","5","3","4","3","3","3","5","3","0","3","4","3","3","4","4","agree","null","","","","","","","","stim/H250.jpg","null","","",""
"html-keyboard-response","105","253891","0.0-11.0-1.35","ers5m2z9jlf1lvl","1","60fced859ee8235b63d47240","28","071993","Single","English","French","Female","White or Caucasian","No","Graduate degree","No, currently not in school","N/A","N/A","N/A","9","8","7","1","4","0.766666676","stim/H160.jpg","76","76","0.66666666","4","1","3","","1","3","4","2","4","3","3","4","1","3","1","2","5","5","1","5","5","2","10","2","1","5","0","5","5","5","0","5","5","5","1","1","2","1","1","2","4","3","4","5","1","1","4","3","4","1","5","3","4","3","3","3","5","3","0","3","4","3","3","4","4","agree","891","","","","","","","","<div style=""font-size:60px;"">?</div>","76","36","1","0.8"
"image-keyboard-response","106","254910","0.0-11.0-0.36","ers5m2z9jlf1lvl","1","60fced859ee8235b63d47240","28","071993","Single","English","French","Female","White or Caucasian","No","Graduate degree","No, currently not in school","N/A","N/A","N/A","9","8","7","1","4","0.766666676","stim/H160.jpg","76","76","0.66666666","4","1","3","","1","3","4","2","4","3","3","4","1","3","1","2","5","5","1","5","5","2","10","2","1","5","0","5","5","5","0","5","5","5","1","1","2","1","1","2","4","3","4","5","1","1","4","3","4","1","5","3","4","3","3","3","5","3","0","3","4","3","3","4","4","agree","null","","","","","","","","stim/H210.jpg","null","","",""
"html-keyboard-response","107","255257","0.0-11.0-1.36","ers5m2z9jlf1lvl","1","60fced859ee8235b63d47240","28","071993","Single","English","French","Female","White or Caucasian","No","Graduate degree","No, currently not in school","N/A","N/A","N/A","9","8","7","1","4","0.766666676","stim/H160.jpg","76","76","0.66666666","4","1","3","","1","3","4","2","4","3","3","4","1","3","1","2","5","5","1","5","5","2","10","2","1","5","0","5","5","5","0","5","5","5","1","1","2","1","1","2","4","3","4","5","1","1","4","3","4","1","5","3","4","3","3","3","5","3","0","3","4","3","3","4","4","agree","345","","","","","","","","<div style=""font-size:60px;"">?</div>","76","37","1","0.8"
"image-keyboard-response","108","256271","0.0-11.0-0.37","ers5m2z9jlf1lvl","1","60fced859ee8235b63d47240","28","071993","Single","English","French","Female","White or Caucasian","No","Graduate degree","No, currently not in school","N/A","N/A","N/A","9","8","7","1","4","0.766666676","stim/H160.jpg","76","76","0.66666666","4","1","3","","1","3","4","2","4","3","3","4","1","3","1","2","5","5","1","5","5","2","10","2","1","5","0","5","5","5","0","5","5","5","1","1","2","1","1","2","4","3","4","5","1","1","4","3","4","1","5","3","4","3","3","3","5","3","0","3","4","3","3","4","4","agree","null","","","","","","","","stim/H120.jpg","null","","",""
"html-keyboard-response","109","256666","0.0-11.0-1.37","ers5m2z9jlf1lvl","1","60fced859ee8235b63d47240","28","071993","Single","English","French","Female","White or Caucasian","No","Graduate degree","No, currently not in school","N/A","N/A","N/A","9","8","7","1","4","0.766666676","stim/H160.jpg","76","76","0.66666666","4","1","3","","1","3","4","2","4","3","3","4","1","3","1","2","5","5","1","5","5","2","10","2","1","5","0","5","5","5","0","5","5","5","1","1","2","1","1","2","4","3","4","5","1","1","4","3","4","1","5","3","4","3","3","3","5","3","0","3","4","3","3","4","4","agree","394","","","","","","","","<div style=""font-size:60px;"">?</div>","76","38","1","0.8"
"image-keyboard-response","110","257678","0.0-11.0-0.38","ers5m2z9jlf1lvl","1","60fced859ee8235b63d47240","28","071993","Single","English","French","Female","White or Caucasian","No","Graduate degree","No, currently not in school","N/A","N/A","N/A","9","8","7","1","4","0.766666676","stim/H160.jpg","76","76","0.66666666","4","1","3","","1","3","4","2","4","3","3","4","1","3","1","2","5","5","1","5","5","2","10","2","1","5","0","5","5","5","0","5","5","5","1","1","2","1","1","2","4","3","4","5","1","1","4","3","4","1","5","3","4","3","3","3","5","3","0","3","4","3","3","4","4","agree","null","","","","","","","","stim/H280.jpg","null","","",""
"html-keyboard-response","111","258216","0.0-11.0-1.38","ers5m2z9jlf1lvl","1","60fced859ee8235b63d47240","28","071993","Single","English","French","Female","White or Caucasian","No","Graduate degree","No, currently not in school","N/A","N/A","N/A","9","8","7","1","4","0.766666676","stim/H160.jpg","76","76","0.66666666","4","1","3","","1","3","4","2","4","3","3","4","1","3","1","2","5","5","1","5","5","2","10","2","1","5","0","5","5","5","0","5","5","5","1","1","2","1","1","2","4","3","4","5","1","1","4","3","4","1","5","3","4","3","3","3","5","3","0","3","4","3","3","4","4","agree","539","","","","","","","","<div style=""font-size:60px;"">?</div>","76","39","1","0.8"
"image-keyboard-response","112","259241","0.0-11.0-0.39","ers5m2z9jlf1lvl","1","60fced859ee8235b63d47240","28","071993","Single","English","French","Female","White or Caucasian","No","Graduate degree","No, currently not in school","N/A","N/A","N/A","9","8","7","1","4","0.766666676","stim/H160.jpg","76","76","0.66666666","4","1","3","","1","3","4","2","4","3","3","4","1","3","1","2","5","5","1","5","5","2","10","2","1","5","0","5","5","5","0","5","5","5","1","1","2","1","1","2","4","3","4","5","1","1","4","3","4","1","5","3","4","3","3","3","5","3","0","3","4","3","3","4","4","agree","null","","","","","","","","stim/H110.jpg","null","","",""
"html-keyboard-response","113","259648","0.0-11.0-1.39","ers5m2z9jlf1lvl","1","60fced859ee8235b63d47240","28","071993","Single","English","French","Female","White or Caucasian","No","Graduate degree","No, currently not in school","N/A","N/A","N/A","9","8","7","1","4","0.766666676","stim/H160.jpg","76","76","0.66666666","4","1","3","","1","3","4","2","4","3","3","4","1","3","1","2","5","5","1","5","5","2","10","2","1","5","0","5","5","5","0","5","5","5","1","1","2","1","1","2","4","3","4","5","1","1","4","3","4","1","5","3","4","3","3","3","5","3","0","3","4","3","3","4","4","agree","405","","","","","","","","<div style=""font-size:60px;"">?</div>","76","40","1","0.8"
"image-keyboard-response","114","260674","0.0-11.0-0.40","ers5m2z9jlf1lvl","1","60fced859ee8235b63d47240","28","071993","Single","English","French","Female","White or Caucasian","No","Graduate degree","No, currently not in school","N/A","N/A","N/A","9","8","7","1","4","0.766666676","stim/H160.jpg","76","76","0.66666666","4","1","3","","1","3","4","2","4","3","3","4","1","3","1","2","5","5","1","5","5","2","10","2","1","5","0","5","5","5","0","5","5","5","1","1","2","1","1","2","4","3","4","5","1","1","4","3","4","1","5","3","4","3","3","3","5","3","0","3","4","3","3","4","4","agree","null","","","","","","","","stim/H290.jpg","null","","",""
"html-keyboard-response","115","260946","0.0-11.0-1.40","ers5m2z9jlf1lvl","1","60fced859ee8235b63d47240","28","071993","Single","English","French","Female","White or Caucasian","No","Graduate degree","No, currently not in school","N/A","N/A","N/A","9","8","7","1","4","0.766666676","stim/H160.jpg","76","76","0.66666666","4","1","3","","1","3","4","2","4","3","3","4","1","3","1","2","5","5","1","5","5","2","10","2","1","5","0","5","5","5","0","5","5","5","1","1","2","1","1","2","4","3","4","5","1","1","4","3","4","1","5","3","4","3","3","3","5","3","0","3","4","3","3","4","4","agree","270","","","","","","","","<div style=""font-size:60px;"">?</div>","76","41","1","0.8"
"image-keyboard-response","116","261956","0.0-11.0-0.41","ers5m2z9jlf1lvl","1","60fced859ee8235b63d47240","28","071993","Single","English","French","Female","White or Caucasian","No","Graduate degree","No, currently not in school","N/A","N/A","N/A","9","8","7","1","4","0.766666676","stim/H160.jpg","76","76","0.66666666","4","1","3","","1","3","4","2","4","3","3","4","1","3","1","2","5","5","1","5","5","2","10","2","1","5","0","5","5","5","0","5","5","5","1","1","2","1","1","2","4","3","4","5","1","1","4","3","4","1","5","3","4","3","3","3","5","3","0","3","4","3","3","4","4","agree","null","","","","","","","","stim/H240.jpg","null","","",""
"html-keyboard-response","117","262366","0.0-11.0-1.41","ers5m2z9jlf1lvl","1","60fced859ee8235b63d47240","28","071993","Single","English","French","Female","White or Caucasian","No","Graduate degree","No, currently not in school","N/A","N/A","N/A","9","8","7","1","4","0.766666676","stim/H160.jpg","76","76","0.66666666","4","1","3","","1","3","4","2","4","3","3","4","1","3","1","2","5","5","1","5","5","2","10","2","1","5","0","5","5","5","0","5","5","5","1","1","2","1","1","2","4","3","4","5","1","1","4","3","4","1","5","3","4","3","3","3","5","3","0","3","4","3","3","4","4","agree","411","","","","","","","","<div style=""font-size:60px;"">?</div>","76","42","1","0.8"
"image-keyboard-response","118","263393","0.0-11.0-0.42","ers5m2z9jlf1lvl","1","60fced859ee8235b63d47240","28","071993","Single","English","French","Female","White or Caucasian","No","Graduate degree","No, currently not in school","N/A","N/A","N/A","9","8","7","1","4","0.766666676","stim/H160.jpg","76","76","0.66666666","4","1","3","","1","3","4","2","4","3","3","4","1","3","1","2","5","5","1","5","5","2","10","2","1","5","0","5","5","5","0","5","5","5","1","1","2","1","1","2","4","3","4","5","1","1","4","3","4","1","5","3","4","3","3","3","5","3","0","3","4","3","3","4","4","agree","null","","","","","","","","stim/T210.jpg","null","","",""
"html-keyboard-response","119","263408","0.0-11.0-1.42","ers5m2z9jlf1lvl","1","60fced859ee8235b63d47240","28","071993","Single","English","French","Female","White or Caucasian","No","Graduate degree","No, currently not in school","N/A","N/A","N/A","9","8","7","1","4","0.766666676","stim/H160.jpg","76","76","0.66666666","4","1","3","","1","3","4","2","4","3","3","4","1","3","1","2","5","5","1","5","5","2","10","2","1","5","0","5","5","5","0","5","5","5","1","1","2","1","1","2","4","3","4","5","1","1","4","3","4","1","5","3","4","3","3","3","5","3","0","3","4","3","3","4","4","agree","13","","","","","","","","<div style=""font-size:60px;"">?</div>","65","43","1","0.8"
"image-keyboard-response","120","264410","0.0-11.0-0.43","ers5m2z9jlf1lvl","1","60fced859ee8235b63d47240","28","071993","Single","English","French","Female","White or Caucasian","No","Graduate degree","No, currently not in school","N/A","N/A","N/A","9","8","7","1","4","0.766666676","stim/H160.jpg","76","76","0.66666666","4","1","3","","1","3","4","2","4","3","3","4","1","3","1","2","5","5","1","5","5","2","10","2","1","5","0","5","5","5","0","5","5","5","1","1","2","1","1","2","4","3","4","5","1","1","4","3","4","1","5","3","4","3","3","3","5","3","0","3","4","3","3","4","4","agree","null","","","","","","","","stim/H160.jpg","null","","",""
"html-keyboard-response","121","264457","0.0-11.0-1.43","ers5m2z9jlf1lvl","1","60fced859ee8235b63d47240","28","071993","Single","English","French","Female","White or Caucasian","No","Graduate degree","No, currently not in school","N/A","N/A","N/A","9","8","7","1","4","0.766666676","stim/H160.jpg","76","76","0.66666666","4","1","3","","1","3","4","2","4","3","3","4","1","3","1","2","5","5","1","5","5","2","10","2","1","5","0","5","5","5","0","5","5","5","1","1","2","1","1","2","4","3","4","5","1","1","4","3","4","1","5","3","4","3","3","3","5","3","0","3","4","3","3","4","4","agree","45","","","","","","","","<div style=""font-size:60px;"">?</div>","76","44","1","0.8"
"image-keyboard-response","122","265463","0.0-11.0-0.44","ers5m2z9jlf1lvl","1","60fced859ee8235b63d47240","28","071993","Single","English","French","Female","White or Caucasian","No","Graduate degree","No, currently not in school","N/A","N/A","N/A","9","8","7","1","4","0.766666676","stim/H160.jpg","76","76","0.66666666","4","1","3","","1","3","4","2","4","3","3","4","1","3","1","2","5","5","1","5","5","2","10","2","1","5","0","5","5","5","0","5","5","5","1","1","2","1","1","2","4","3","4","5","1","1","4","3","4","1","5","3","4","3","3","3","5","3","0","3","4","3","3","4","4","agree","null","","","","","","","","stim/H050.jpg","null","","",""
"html-keyboard-response","123","266224","0.0-11.0-1.44","ers5m2z9jlf1lvl","1","60fced859ee8235b63d47240","28","071993","Single","English","French","Female","White or Caucasian","No","Graduate degree","No, currently not in school","N/A","N/A","N/A","9","8","7","1","4","0.766666676","stim/H160.jpg","76","76","0.66666666","4","1","3","","1","3","4","2","4","3","3","4","1","3","1","2","5","5","1","5","5","2","10","2","1","5","0","5","5","5","0","5","5","5","1","1","2","1","1","2","4","3","4","5","1","1","4","3","4","1","5","3","4","3","3","3","5","3","0","3","4","3","3","4","4","agree","760","","","","","","","","<div style=""font-size:60px;"">?</div>","76","45","1","0.8"
"image-keyboard-response","124","267252","0.0-11.0-0.45","ers5m2z9jlf1lvl","1","60fced859ee8235b63d47240","28","071993","Single","English","French","Female","White or Caucasian","No","Graduate degree","No, currently not in school","N/A","N/A","N/A","9","8","7","1","4","0.766666676","stim/H160.jpg","76","76","0.66666666","4","1","3","","1","3","4","2","4","3","3","4","1","3","1","2","5","5","1","5","5","2","10","2","1","5","0","5","5","5","0","5","5","5","1","1","2","1","1","2","4","3","4","5","1","1","4","3","4","1","5","3","4","3","3","3","5","3","0","3","4","3","3","4","4","agree","null","","","","","","","","stim/H230.jpg","null","","",""
"html-keyboard-response","125","267290","0.0-11.0-1.45","ers5m2z9jlf1lvl","1","60fced859ee8235b63d47240","28","071993","Single","English","French","Female","White or Caucasian","No","Graduate degree","No, currently not in school","N/A","N/A","N/A","9","8","7","1","4","0.766666676","stim/H160.jpg","76","76","0.66666666","4","1","3","","1","3","4","2","4","3","3","4","1","3","1","2","5","5","1","5","5","2","10","2","1","5","0","5","5","5","0","5","5","5","1","1","2","1","1","2","4","3","4","5","1","1","4","3","4","1","5","3","4","3","3","3","5","3","0","3","4","3","3","4","4","agree","36","","","","","","","","<div style=""font-size:60px;"">?</div>","76","46","1","0.8"
"image-keyboard-response","126","268301","0.0-11.0-0.46","ers5m2z9jlf1lvl","1","60fced859ee8235b63d47240","28","071993","Single","English","French","Female","White or Caucasian","No","Graduate degree","No, currently not in school","N/A","N/A","N/A","9","8","7","1","4","0.766666676","stim/H160.jpg","76","76","0.66666666","4","1","3","","1","3","4","2","4","3","3","4","1","3","1","2","5","5","1","5","5","2","10","2","1","5","0","5","5","5","0","5","5","5","1","1","2","1","1","2","4","3","4","5","1","1","4","3","4","1","5","3","4","3","3","3","5","3","0","3","4","3","3","4","4","agree","null","","","","","","","","stim/H240.jpg","null","","",""
"html-keyboard-response","127","268708","0.0-11.0-1.46","ers5m2z9jlf1lvl","1","60fced859ee8235b63d47240","28","071993","Single","English","French","Female","White or Caucasian","No","Graduate degree","No, currently not in school","N/A","N/A","N/A","9","8","7","1","4","0.766666676","stim/H160.jpg","76","76","0.66666666","4","1","3","","1","3","4","2","4","3","3","4","1","3","1","2","5","5","1","5","5","2","10","2","1","5","0","5","5","5","0","5","5","5","1","1","2","1","1","2","4","3","4","5","1","1","4","3","4","1","5","3","4","3","3","3","5","3","0","3","4","3","3","4","4","agree","405","","","","","","","","<div style=""font-size:60px;"">?</div>","76","47","1","0.8"
"image-keyboard-response","128","269715","0.0-11.0-0.47","ers5m2z9jlf1lvl","1","60fced859ee8235b63d47240","28","071993","Single","English","French","Female","White or Caucasian","No","Graduate degree","No, currently not in school","N/A","N/A","N/A","9","8","7","1","4","0.766666676","stim/H160.jpg","76","76","0.66666666","4","1","3","","1","3","4","2","4","3","3","4","1","3","1","2","5","5","1","5","5","2","10","2","1","5","0","5","5","5","0","5","5","5","1","1","2","1","1","2","4","3","4","5","1","1","4","3","4","1","5","3","4","3","3","3","5","3","0","3","4","3","3","4","4","agree","null","","","","","","","","stim/H180.jpg","null","","",""
"html-keyboard-response","129","270116","0.0-11.0-1.47","ers5m2z9jlf1lvl","1","60fced859ee8235b63d47240","28","071993","Single","English","French","Female","White or Caucasian","No","Graduate degree","No, currently not in school","N/A","N/A","N/A","9","8","7","1","4","0.766666676","stim/H160.jpg","76","76","0.66666666","4","1","3","","1","3","4","2","4","3","3","4","1","3","1","2","5","5","1","5","5","2","10","2","1","5","0","5","5","5","0","5","5","5","1","1","2","1","1","2","4","3","4","5","1","1","4","3","4","1","5","3","4","3","3","3","5","3","0","3","4","3","3","4","4","agree","400","","","","","","","","<div style=""font-size:60px;"">?</div>","76","48","1","0.8"
"image-keyboard-response","130","271128","0.0-11.0-0.48","ers5m2z9jlf1lvl","1","60fced859ee8235b63d47240","28","071993","Single","English","French","Female","White or Caucasian","No","Graduate degree","No, currently not in school","N/A","N/A","N/A","9","8","7","1","4","0.766666676","stim/H160.jpg","76","76","0.66666666","4","1","3","","1","3","4","2","4","3","3","4","1","3","1","2","5","5","1","5","5","2","10","2","1","5","0","5","5","5","0","5","5","5","1","1","2","1","1","2","4","3","4","5","1","1","4","3","4","1","5","3","4","3","3","3","5","3","0","3","4","3","3","4","4","agree","null","","","","","","","","stim/H080.jpg","null","","",""
"html-keyboard-response","131","271541","0.0-11.0-1.48","ers5m2z9jlf1lvl","1","60fced859ee8235b63d47240","28","071993","Single","English","French","Female","White or Caucasian","No","Graduate degree","No, currently not in school","N/A","N/A","N/A","9","8","7","1","4","0.766666676","stim/H160.jpg","76","76","0.66666666","4","1","3","","1","3","4","2","4","3","3","4","1","3","1","2","5","5","1","5","5","2","10","2","1","5","0","5","5","5","0","5","5","5","1","1","2","1","1","2","4","3","4","5","1","1","4","3","4","1","5","3","4","3","3","3","5","3","0","3","4","3","3","4","4","agree","413","","","","","","","","<div style=""font-size:60px;"">?</div>","76","49","1","0.8"
"image-keyboard-response","132","272553","0.0-11.0-0.49","ers5m2z9jlf1lvl","1","60fced859ee8235b63d47240","28","071993","Single","English","French","Female","White or Caucasian","No","Graduate degree","No, currently not in school","N/A","N/A","N/A","9","8","7","1","4","0.766666676","stim/H160.jpg","76","76","0.66666666","4","1","3","","1","3","4","2","4","3","3","4","1","3","1","2","5","5","1","5","5","2","10","2","1","5","0","5","5","5","0","5","5","5","1","1","2","1","1","2","4","3","4","5","1","1","4","3","4","1","5","3","4","3","3","3","5","3","0","3","4","3","3","4","4","agree","null","","","","","","","","stim/H090.jpg","null","","",""
"html-keyboard-response","133","272856","0.0-11.0-1.49","ers5m2z9jlf1lvl","1","60fced859ee8235b63d47240","28","071993","Single","English","French","Female","White or Caucasian","No","Graduate degree","No, currently not in school","N/A","N/A","N/A","9","8","7","1","4","0.766666676","stim/H160.jpg","76","76","0.66666666","4","1","3","","1","3","4","2","4","3","3","4","1","3","1","2","5","5","1","5","5","2","10","2","1","5","0","5","5","5","0","5","5","5","1","1","2","1","1","2","4","3","4","5","1","1","4","3","4","1","5","3","4","3","3","3","5","3","0","3","4","3","3","4","4","agree","302","","","","","","","","<div style=""font-size:60px;"">?</div>","76","50","1","0.8"
"html-keyboard-response","134","274202","0.0-12.0","ers5m2z9jlf1lvl","1","60fced859ee8235b63d47240","28","071993","Single","English","French","Female","White or Caucasian","No","Graduate degree","No, currently not in school","N/A","N/A","N/A","9","8","7","1","4","0.766666676","stim/H160.jpg","76","76","0.66666666","4","1","3","","1","3","4","2","4","3","3","4","1","3","1","2","5","5","1","5","5","2","10","2","1","5","0","5","5","5","0","5","5","5","1","1","2","1","1","2","4","3","4","5","1","1","4","3","4","1","5","3","4","3","3","3","5","3","0","3","4","3","3","4","4","agree","837","","","","","","","","<p>Block 2</p><p>Press SPACE to continue.</p>","32","","",""
"image-keyboard-response","135","275712","0.0-13.0-0.0","ers5m2z9jlf1lvl","1","60fced859ee8235b63d47240","28","071993","Single","English","French","Female","White or Caucasian","No","Graduate degree","No, currently not in school","N/A","N/A","N/A","9","8","7","1","4","0.766666676","stim/H160.jpg","76","76","0.66666666","4","1","3","","1","3","4","2","4","3","3","4","1","3","1","2","5","5","1","5","5","2","10","2","1","5","0","5","5","5","0","5","5","5","1","1","2","1","1","2","4","3","4","5","1","1","4","3","4","1","5","3","4","3","3","3","5","3","0","3","4","3","3","4","4","agree","null","","","","","","","","stim/T170.jpg","null","","",""
"html-keyboard-response","136","276366","0.0-13.0-1.0","ers5m2z9jlf1lvl","1","60fced859ee8235b63d47240","28","071993","Single","English","French","Female","White or Caucasian","No","Graduate degree","No, currently not in school","N/A","N/A","N/A","9","8","7","1","4","0.766666676","stim/H160.jpg","76","76","0.66666666","4","1","3","","1","3","4","2","4","3","3","4","1","3","1","2","5","5","1","5","5","2","10","2","1","5","0","5","5","5","0","5","5","5","1","1","2","1","1","2","4","3","4","5","1","1","4","3","4","1","5","3","4","3","3","3","5","3","0","3","4","3","3","4","4","agree","653","","","","","","","","<div style=""font-size:60px;"">?</div>","65","1","2","0.8"
"image-keyboard-response","137","277384","0.0-13.0-0.1","ers5m2z9jlf1lvl","1","60fced859ee8235b63d47240","28","071993","Single","English","French","Female","White or Caucasian","No","Graduate degree","No, currently not in school","N/A","N/A","N/A","9","8","7","1","4","0.766666676","stim/H160.jpg","76","76","0.66666666","4","1","3","","1","3","4","2","4","3","3","4","1","3","1","2","5","5","1","5","5","2","10","2","1","5","0","5","5","5","0","5","5","5","1","1","2","1","1","2","4","3","4","5","1","1","4","3","4","1","5","3","4","3","3","3","5","3","0","3","4","3","3","4","4","agree","null","","","","","","","","stim/H260.jpg","null","","",""
"html-keyboard-response","138","278297","0.0-13.0-1.1","ers5m2z9jlf1lvl","1","60fced859ee8235b63d47240","28","071993","Single","English","French","Female","White or Caucasian","No","Graduate degree","No, currently not in school","N/A","N/A","N/A","9","8","7","1","4","0.766666676","stim/H160.jpg","76","76","0.66666666","4","1","3","","1","3","4","2","4","3","3","4","1","3","1","2","5","5","1","5","5","2","10","2","1","5","0","5","5","5","0","5","5","5","1","1","2","1","1","2","4","3","4","5","1","1","4","3","4","1","5","3","4","3","3","3","5","3","0","3","4","3","3","4","4","agree","912","","","","","","","","<div style=""font-size:60px;"">?</div>","76","2","2","0.8"
"image-keyboard-response","139","279308","0.0-13.0-0.2","ers5m2z9jlf1lvl","1","60fced859ee8235b63d47240","28","071993","Single","English","French","Female","White or Caucasian","No","Graduate degree","No, currently not in school","N/A","N/A","N/A","9","8","7","1","4","0.766666676","stim/H160.jpg","76","76","0.66666666","4","1","3","","1","3","4","2","4","3","3","4","1","3","1","2","5","5","1","5","5","2","10","2","1","5","0","5","5","5","0","5","5","5","1","1","2","1","1","2","4","3","4","5","1","1","4","3","4","1","5","3","4","3","3","3","5","3","0","3","4","3","3","4","4","agree","null","","","","","","","","stim/H260.jpg","null","","",""
"html-keyboard-response","140","279610","0.0-13.0-1.2","ers5m2z9jlf1lvl","1","60fced859ee8235b63d47240","28","071993","Single","English","French","Female","White or Caucasian","No","Graduate degree","No, currently not in school","N/A","N/A","N/A","9","8","7","1","4","0.766666676","stim/H160.jpg","76","76","0.66666666","4","1","3","","1","3","4","2","4","3","3","4","1","3","1","2","5","5","1","5","5","2","10","2","1","5","0","5","5","5","0","5","5","5","1","1","2","1","1","2","4","3","4","5","1","1","4","3","4","1","5","3","4","3","3","3","5","3","0","3","4","3","3","4","4","agree","302","","","","","","","","<div style=""font-size:60px;"">?</div>","76","3","2","0.8"
"image-keyboard-response","141","280629","0.0-13.0-0.3","ers5m2z9jlf1lvl","1","60fced859ee8235b63d47240","28","071993","Single","English","French","Female","White or Caucasian","No","Graduate degree","No, currently not in school","N/A","N/A","N/A","9","8","7","1","4","0.766666676","stim/H160.jpg","76","76","0.66666666","4","1","3","","1","3","4","2","4","3","3","4","1","3","1","2","5","5","1","5","5","2","10","2","1","5","0","5","5","5","0","5","5","5","1","1","2","1","1","2","4","3","4","5","1","1","4","3","4","1","5","3","4","3","3","3","5","3","0","3","4","3","3","4","4","agree","null","","","","","","","","stim/H270.jpg","null","","",""
"html-keyboard-response","142","280957","0.0-13.0-1.3","ers5m2z9jlf1lvl","1","60fced859ee8235b63d47240","28","071993","Single","English","French","Female","White or Caucasian","No","Graduate degree","No, currently not in school","N/A","N/A","N/A","9","8","7","1","4","0.766666676","stim/H160.jpg","76","76","0.66666666","4","1","3","","1","3","4","2","4","3","3","4","1","3","1","2","5","5","1","5","5","2","10","2","1","5","0","5","5","5","0","5","5","5","1","1","2","1","1","2","4","3","4","5","1","1","4","3","4","1","5","3","4","3","3","3","5","3","0","3","4","3","3","4","4","agree","327","","","","","","","","<div style=""font-size:60px;"">?</div>","76","4","2","0.8"
"image-keyboard-response","143","281964","0.0-13.0-0.4","ers5m2z9jlf1lvl","1","60fced859ee8235b63d47240","28","071993","Single","English","French","Female","White or Caucasian","No","Graduate degree","No, currently not in school","N/A","N/A","N/A","9","8","7","1","4","0.766666676","stim/H160.jpg","76","76","0.66666666","4","1","3","","1","3","4","2","4","3","3","4","1","3","1","2","5","5","1","5","5","2","10","2","1","5","0","5","5","5","0","5","5","5","1","1","2","1","1","2","4","3","4","5","1","1","4","3","4","1","5","3","4","3","3","3","5","3","0","3","4","3","3","4","4","agree","null","","","","","","","","stim/H100.jpg","null","","",""
"html-keyboard-response","144","281969","0.0-13.0-1.4","ers5m2z9jlf1lvl","1","60fced859ee8235b63d47240","28","071993","Single","English","French","Female","White or Caucasian","No","Graduate degree","No, currently not in school","N/A","N/A","N/A","9","8","7","1","4","0.766666676","stim/H160.jpg","76","76","0.66666666","4","1","3","","1","3","4","2","4","3","3","4","1","3","1","2","5","5","1","5","5","2","10","2","1","5","0","5","5","5","0","5","5","5","1","1","2","1","1","2","4","3","4","5","1","1","4","3","4","1","5","3","4","3","3","3","5","3","0","3","4","3","3","4","4","agree","5","","","","","","","","<div style=""font-size:60px;"">?</div>","76","5","2","0.8"
"image-keyboard-response","145","282981","0.0-13.0-0.5","ers5m2z9jlf1lvl","1","60fced859ee8235b63d47240","28","071993","Single","English","French","Female","White or Caucasian","No","Graduate degree","No, currently not in school","N/A","N/A","N/A","9","8","7","1","4","0.766666676","stim/H160.jpg","76","76","0.66666666","4","1","3","","1","3","4","2","4","3","3","4","1","3","1","2","5","5","1","5","5","2","10","2","1","5","0","5","5","5","0","5","5","5","1","1","2","1","1","2","4","3","4","5","1","1","4","3","4","1","5","3","4","3","3","3","5","3","0","3","4","3","3","4","4","agree","null","","","","","","","","stim/H270.jpg","null","","",""
"html-keyboard-response","146","283362","0.0-13.0-1.5","ers5m2z9jlf1lvl","1","60fced859ee8235b63d47240","28","071993","Single","English","French","Female","White or Caucasian","No","Graduate degree","No, currently not in school","N/A","N/A","N/A","9","8","7","1","4","0.766666676","stim/H160.jpg","76","76","0.66666666","4","1","3","","1","3","4","2","4","3","3","4","1","3","1","2","5","5","1","5","5","2","10","2","1","5","0","5","5","5","0","5","5","5","1","1","2","1","1","2","4","3","4","5","1","1","4","3","4","1","5","3","4","3","3","3","5","3","0","3","4","3","3","4","4","agree","380","","","","","","","","<div style=""font-size:60px;"">?</div>","76","6","2","0.8"
