"trial_type","trial_index","time_elapsed","internal_node_id","subject","condition","ID","age","dob","marital","natlang","olang","gender","ethnicity","mental_check","educ_l","educ_c","mental","mentdrug","mentpos","sesparent","sesstudent","sesladder","educ_hs","educ_ce","s1self","chosenbody","s1selfjudge","s2selfjudge","s2self","sspc_01","sspc_02","pas_01","pas_02","pas_03","pas_04","pas_05","pas_06","pas_07","pas_08","pas_09","pas_10","pas_11","pas_12","pas_13","pas_14","contact_01","contact_02","contact_03","contact_04","contact_05","contact_06","contact_07","contact_08","contact_09","idnd_01","idnd_02","idnd_03","idnd_04","idnd_05","idnd_06","idnd_07","idnd_08","catch_01","adig_01","adig_02","adig_03","plcs_01","plcs_02","plcs_03","plcs_04","plcs_05","plcs_06","plcs_07","plcs_08","plcs_09","plcs_10","plcs_11","plcs_12","catch_02","wwwp_01","wwwp_02","wwwp_03","wwwp_04","wwwp_05","wwwp_06","wwwp_07","wwwp_08","wwwp_09","lsns_fam_1","lsns_fam_2","lsns_fam_3","lsns_fri_1","lsns_fri_2","lsns_fri_3","debrief","rt","url","success","view_history","responses","question_order","final_value","start_value","stimulus","key_press","trial","block","freq"
"pavlovia","0","6","0.0-0.0","wj1onw8mhp7x88q","1","60ff50bd87fb9ec9442e396a","21","08/2000","Single","Hindi","English","Female","Asian","No","Undergraduate degree","No, currently not in school","N/A","N/A","N/A","5","4","4","2","3","0.5","stim/N000.jpg","65","65","0.5","3","2","2","","2","2","2","2","2","2","2","2","2","2","2","2","3","3","3","3","3","3","5","3","3","3","3","3","3","3","3","3","3","5","3","3","3","3","3","3","3","3","3","3","3","3","3","3","3","3","3","3","3","3","3","3","3","3","3","3","2","3","3","2","3","agree","","","","","","","","","","","","",""
"external-html","1","56542","0.0-1.0","wj1onw8mhp7x88q","1","60ff50bd87fb9ec9442e396a","21","08/2000","Single","Hindi","English","Female","Asian","No","Undergraduate degree","No, currently not in school","N/A","N/A","N/A","5","4","4","2","3","0.5","stim/N000.jpg","65","65","0.5","3","2","2","","2","2","2","2","2","2","2","2","2","2","2","2","3","3","3","3","3","3","5","3","3","3","3","3","3","3","3","3","3","5","3","3","3","3","3","3","3","3","3","3","3","3","3","3","3","3","3","3","3","3","3","3","3","3","3","3","2","3","3","2","3","agree","56338.30000000447","sub/html/consent.html","","","","","","","","","","",""
"fullscreen","2","59871","0.0-2.0","wj1onw8mhp7x88q","1","60ff50bd87fb9ec9442e396a","21","08/2000","Single","Hindi","English","Female","Asian","No","Undergraduate degree","No, currently not in school","N/A","N/A","N/A","5","4","4","2","3","0.5","stim/N000.jpg","65","65","0.5","3","2","2","","2","2","2","2","2","2","2","2","2","2","2","2","3","3","3","3","3","3","5","3","3","3","3","3","3","3","3","3","3","5","3","3","3","3","3","3","3","3","3","3","3","3","3","3","3","3","3","3","3","3","3","3","3","3","3","3","2","3","3","2","3","agree","","","true","","","","","","","","","",""
"instructions","3","68739","0.0-3.0","wj1onw8mhp7x88q","1","60ff50bd87fb9ec9442e396a","21","08/2000","Single","Hindi","English","Female","Asian","No","Undergraduate degree","No, currently not in school","N/A","N/A","N/A","5","4","4","2","3","0.5","stim/N000.jpg","65","65","0.5","3","2","2","","2","2","2","2","2","2","2","2","2","2","2","2","3","3","3","3","3","3","5","3","3","3","3","3","3","3","3","3","3","5","3","3","3","3","3","3","3","3","3","3","3","3","3","3","3","3","3","3","3","3","3","3","3","3","3","3","2","3","3","2","3","agree","8867.39999999851","","","[{""page_index"":0,""viewing_time"":4363.79999999702},{""page_index"":1,""viewing_time"":4501.80000000447}]","","","","","","","","",""
"survey-text","4","113758","0.0-4.0-0.0","wj1onw8mhp7x88q","1","60ff50bd87fb9ec9442e396a","21","08/2000","Single","Hindi","English","Female","Asian","No","Undergraduate degree","No, currently not in school","N/A","N/A","N/A","5","4","4","2","3","0.5","stim/N000.jpg","65","65","0.5","3","2","2","","2","2","2","2","2","2","2","2","2","2","2","2","3","3","3","3","3","3","5","3","3","3","3","3","3","3","3","3","3","5","3","3","3","3","3","3","3","3","3","3","3","3","3","3","3","3","3","3","3","3","3","3","3","3","3","3","2","3","3","2","3","agree","45010.70000000298","","","","{""ID"":""60ff50bd87fb9ec9442e396a"",""age"":""21"",""dob"":""08/2000"",""marital"":""Single"",""natlang"":""Hindi"",""olang"":""English""}","","","","","","","",""
"survey-multi-choice","5","237086","0.0-4.0-1.0","wj1onw8mhp7x88q","1","60ff50bd87fb9ec9442e396a","21","08/2000","Single","Hindi","English","Female","Asian","No","Undergraduate degree","No, currently not in school","N/A","N/A","N/A","5","4","4","2","3","0.5","stim/N000.jpg","65","65","0.5","3","2","2","","2","2","2","2","2","2","2","2","2","2","2","2","3","3","3","3","3","3","5","3","3","3","3","3","3","3","3","3","3","5","3","3","3","3","3","3","3","3","3","3","3","3","3","3","3","3","3","3","3","3","3","3","3","3","3","3","2","3","3","2","3","agree","123327.10000000149","","","","{""gender"":""Female"",""ethnicity"":""Asian"",""mental_check"":""No"",""educ_l"":""Undergraduate degree"",""educ_c"":""No, currently not in school""}","[0,1,2,3,4]","","","","","","",""
"survey-text","6","265847","0.0-4.0-2.0","wj1onw8mhp7x88q","1","60ff50bd87fb9ec9442e396a","21","08/2000","Single","Hindi","English","Female","Asian","No","Undergraduate degree","No, currently not in school","N/A","N/A","N/A","5","4","4","2","3","0.5","stim/N000.jpg","65","65","0.5","3","2","2","","2","2","2","2","2","2","2","2","2","2","2","2","3","3","3","3","3","3","5","3","3","3","3","3","3","3","3","3","3","5","3","3","3","3","3","3","3","3","3","3","3","3","3","3","3","3","3","3","3","3","3","3","3","3","3","3","2","3","3","2","3","agree","28754.19999999553","","","","{""mental"":""N/A"",""mentdrug"":""N/A"",""mentpos"":""N/A""}","","","","","","","",""
"survey-likert","7","354498","0.0-4.0-3.0","wj1onw8mhp7x88q","1","60ff50bd87fb9ec9442e396a","21","08/2000","Single","Hindi","English","Female","Asian","No","Undergraduate degree","No, currently not in school","N/A","N/A","N/A","5","4","4","2","3","0.5","stim/N000.jpg","65","65","0.5","3","2","2","","2","2","2","2","2","2","2","2","2","2","2","2","3","3","3","3","3","3","5","3","3","3","3","3","3","3","3","3","3","5","3","3","3","3","3","3","3","3","3","3","3","3","3","3","3","3","3","3","3","3","3","3","3","3","3","3","2","3","3","2","3","agree","88648.89999999851","","","","{""sesparent"":5,""sesstudent"":4,""sesladder"":4}","[0,1,2]","","","","","","",""
"survey-likert","8","424943","0.0-4.0-4.0","wj1onw8mhp7x88q","1","60ff50bd87fb9ec9442e396a","21","08/2000","Single","Hindi","English","Female","Asian","No","Undergraduate degree","No, currently not in school","N/A","N/A","N/A","5","4","4","2","3","0.5","stim/N000.jpg","65","65","0.5","3","2","2","","2","2","2","2","2","2","2","2","2","2","2","2","3","3","3","3","3","3","5","3","3","3","3","3","3","3","3","3","3","5","3","3","3","3","3","3","3","3","3","3","3","3","3","3","3","3","3","3","3","3","3","3","3","3","3","3","2","3","3","2","3","agree","70442.60000000149","","","","{""educ_hs"":1,""educ_ce"":3}","[0,1]","","","","","","",""
"reconstruction","9","428373","0.0-5.0","wj1onw8mhp7x88q","1","60ff50bd87fb9ec9442e396a","21","08/2000","Single","Hindi","English","Female","Asian","No","Undergraduate degree","No, currently not in school","N/A","N/A","N/A","5","4","4","2","3","0.5","stim/N000.jpg","65","65","0.5","3","2","2","","2","2","2","2","2","2","2","2","2","2","2","2","3","3","3","3","3","3","5","3","3","3","3","3","3","3","3","3","3","5","3","3","3","3","3","3","3","3","3","3","3","3","3","3","3","3","3","3","3","3","3","3","3","3","3","3","2","3","3","2","3","agree","3425","","","","","","0.5","0.5","","","","",""
"image-keyboard-response","10","450792","0.0-6.0","wj1onw8mhp7x88q","1","60ff50bd87fb9ec9442e396a","21","08/2000","Single","Hindi","English","Female","Asian","No","Undergraduate degree","No, currently not in school","N/A","N/A","N/A","5","4","4","2","3","0.5","stim/N000.jpg","65","65","0.5","3","2","2","","2","2","2","2","2","2","2","2","2","2","2","2","3","3","3","3","3","3","5","3","3","3","3","3","3","3","3","3","3","5","3","3","3","3","3","3","3","3","3","3","3","3","3","3","3","3","3","3","3","3","3","3","3","3","3","3","2","3","3","2","3","agree","22416.39999999851","","","","","","","","stim/N000.jpg","65","","",""
"instructions","11","602375","0.0-7.0","wj1onw8mhp7x88q","1","60ff50bd87fb9ec9442e396a","21","08/2000","Single","Hindi","English","Female","Asian","No","Undergraduate degree","No, currently not in school","N/A","N/A","N/A","5","4","4","2","3","0.5","stim/N000.jpg","65","65","0.5","3","2","2","","2","2","2","2","2","2","2","2","2","2","2","2","3","3","3","3","3","3","5","3","3","3","3","3","3","3","3","3","3","5","3","3","3","3","3","3","3","3","3","3","3","3","3","3","3","3","3","3","3","3","3","3","3","3","3","3","2","3","3","2","3","agree","151588.09999999404","","","[{""page_index"":0,""viewing_time"":84116.5},{""page_index"":1,""viewing_time"":3421.0999999940395},{""page_index"":2,""viewing_time"":4968.4000000059605},{""page_index"":3,""viewing_time"":4466.19999999553},{""page_index"":4,""viewing_time"":47499.60000000149},{""page_index"":5,""viewing_time"":4069.2000000029802},{""page_index"":6,""viewing_time"":3045.5999999940395}]","","","","","","","","",""
"image-keyboard-response","12","602885","0.0-8.0-0.0","wj1onw8mhp7x88q","1","60ff50bd87fb9ec9442e396a","21","08/2000","Single","Hindi","English","Female","Asian","No","Undergraduate degree","No, currently not in school","N/A","N/A","N/A","5","4","4","2","3","0.5","stim/N000.jpg","65","65","0.5","3","2","2","","2","2","2","2","2","2","2","2","2","2","2","2","3","3","3","3","3","3","5","3","3","3","3","3","3","3","3","3","3","5","3","3","3","3","3","3","3","3","3","3","3","3","3","3","3","3","3","3","3","3","3","3","3","3","3","3","2","3","3","2","3","agree","null","","","","","","","","stim/H220.jpg","null","","",""
"html-keyboard-response","13","606458","0.0-8.0-1.0","wj1onw8mhp7x88q","1","60ff50bd87fb9ec9442e396a","21","08/2000","Single","Hindi","English","Female","Asian","No","Undergraduate degree","No, currently not in school","N/A","N/A","N/A","5","4","4","2","3","0.5","stim/N000.jpg","65","65","0.5","3","2","2","","2","2","2","2","2","2","2","2","2","2","2","2","3","3","3","3","3","3","5","3","3","3","3","3","3","3","3","3","3","5","3","3","3","3","3","3","3","3","3","3","3","3","3","3","3","3","3","3","3","3","3","3","3","3","3","3","2","3","3","2","3","agree","3570.7999999970198","","","","","","","","<div style=""font-size:60px;"">?</div>","76","1","Practice","0.5"
"image-keyboard-response","14","607468","0.0-8.0-0.1","wj1onw8mhp7x88q","1","60ff50bd87fb9ec9442e396a","21","08/2000","Single","Hindi","English","Female","Asian","No","Undergraduate degree","No, currently not in school","N/A","N/A","N/A","5","4","4","2","3","0.5","stim/N000.jpg","65","65","0.5","3","2","2","","2","2","2","2","2","2","2","2","2","2","2","2","3","3","3","3","3","3","5","3","3","3","3","3","3","3","3","3","3","5","3","3","3","3","3","3","3","3","3","3","3","3","3","3","3","3","3","3","3","3","3","3","3","3","3","3","2","3","3","2","3","agree","null","","","","","","","","stim/T290.jpg","null","","",""
"html-keyboard-response","15","608580","0.0-8.0-1.1","wj1onw8mhp7x88q","1","60ff50bd87fb9ec9442e396a","21","08/2000","Single","Hindi","English","Female","Asian","No","Undergraduate degree","No, currently not in school","N/A","N/A","N/A","5","4","4","2","3","0.5","stim/N000.jpg","65","65","0.5","3","2","2","","2","2","2","2","2","2","2","2","2","2","2","2","3","3","3","3","3","3","5","3","3","3","3","3","3","3","3","3","3","5","3","3","3","3","3","3","3","3","3","3","3","3","3","3","3","3","3","3","3","3","3","3","3","3","3","3","2","3","3","2","3","agree","1110.0999999940395","","","","","","","","<div style=""font-size:60px;"">?</div>","65","2","Practice","0.5"
"image-keyboard-response","16","609585","0.0-8.0-0.2","wj1onw8mhp7x88q","1","60ff50bd87fb9ec9442e396a","21","08/2000","Single","Hindi","English","Female","Asian","No","Undergraduate degree","No, currently not in school","N/A","N/A","N/A","5","4","4","2","3","0.5","stim/N000.jpg","65","65","0.5","3","2","2","","2","2","2","2","2","2","2","2","2","2","2","2","3","3","3","3","3","3","5","3","3","3","3","3","3","3","3","3","3","5","3","3","3","3","3","3","3","3","3","3","3","3","3","3","3","3","3","3","3","3","3","3","3","3","3","3","2","3","3","2","3","agree","null","","","","","","","","stim/T260.jpg","null","","",""
"html-keyboard-response","17","612013","0.0-8.0-1.2","wj1onw8mhp7x88q","1","60ff50bd87fb9ec9442e396a","21","08/2000","Single","Hindi","English","Female","Asian","No","Undergraduate degree","No, currently not in school","N/A","N/A","N/A","5","4","4","2","3","0.5","stim/N000.jpg","65","65","0.5","3","2","2","","2","2","2","2","2","2","2","2","2","2","2","2","3","3","3","3","3","3","5","3","3","3","3","3","3","3","3","3","3","5","3","3","3","3","3","3","3","3","3","3","3","3","3","3","3","3","3","3","3","3","3","3","3","3","3","3","2","3","3","2","3","agree","2426.2999999970198","","","","","","","","<div style=""font-size:60px;"">?</div>","65","3","Practice","0.5"
"image-keyboard-response","18","613023","0.0-8.0-0.3","wj1onw8mhp7x88q","1","60ff50bd87fb9ec9442e396a","21","08/2000","Single","Hindi","English","Female","Asian","No","Undergraduate degree","No, currently not in school","N/A","N/A","N/A","5","4","4","2","3","0.5","stim/N000.jpg","65","65","0.5","3","2","2","","2","2","2","2","2","2","2","2","2","2","2","2","3","3","3","3","3","3","5","3","3","3","3","3","3","3","3","3","3","5","3","3","3","3","3","3","3","3","3","3","3","3","3","3","3","3","3","3","3","3","3","3","3","3","3","3","2","3","3","2","3","agree","null","","","","","","","","stim/H130.jpg","null","","",""
"html-keyboard-response","19","614020","0.0-8.0-1.3","wj1onw8mhp7x88q","1","60ff50bd87fb9ec9442e396a","21","08/2000","Single","Hindi","English","Female","Asian","No","Undergraduate degree","No, currently not in school","N/A","N/A","N/A","5","4","4","2","3","0.5","stim/N000.jpg","65","65","0.5","3","2","2","","2","2","2","2","2","2","2","2","2","2","2","2","3","3","3","3","3","3","5","3","3","3","3","3","3","3","3","3","3","5","3","3","3","3","3","3","3","3","3","3","3","3","3","3","3","3","3","3","3","3","3","3","3","3","3","3","2","3","3","2","3","agree","995.8999999985099","","","","","","","","<div style=""font-size:60px;"">?</div>","76","4","Practice","0.5"
"image-keyboard-response","20","615035","0.0-8.0-0.4","wj1onw8mhp7x88q","1","60ff50bd87fb9ec9442e396a","21","08/2000","Single","Hindi","English","Female","Asian","No","Undergraduate degree","No, currently not in school","N/A","N/A","N/A","5","4","4","2","3","0.5","stim/N000.jpg","65","65","0.5","3","2","2","","2","2","2","2","2","2","2","2","2","2","2","2","3","3","3","3","3","3","5","3","3","3","3","3","3","3","3","3","3","5","3","3","3","3","3","3","3","3","3","3","3","3","3","3","3","3","3","3","3","3","3","3","3","3","3","3","2","3","3","2","3","agree","null","","","","","","","","stim/T240.jpg","null","","",""
"html-keyboard-response","21","615665","0.0-8.0-1.4","wj1onw8mhp7x88q","1","60ff50bd87fb9ec9442e396a","21","08/2000","Single","Hindi","English","Female","Asian","No","Undergraduate degree","No, currently not in school","N/A","N/A","N/A","5","4","4","2","3","0.5","stim/N000.jpg","65","65","0.5","3","2","2","","2","2","2","2","2","2","2","2","2","2","2","2","3","3","3","3","3","3","5","3","3","3","3","3","3","3","3","3","3","5","3","3","3","3","3","3","3","3","3","3","3","3","3","3","3","3","3","3","3","3","3","3","3","3","3","3","2","3","3","2","3","agree","628.2999999970198","","","","","","","","<div style=""font-size:60px;"">?</div>","65","5","Practice","0.5"
"image-keyboard-response","22","616672","0.0-8.0-0.5","wj1onw8mhp7x88q","1","60ff50bd87fb9ec9442e396a","21","08/2000","Single","Hindi","English","Female","Asian","No","Undergraduate degree","No, currently not in school","N/A","N/A","N/A","5","4","4","2","3","0.5","stim/N000.jpg","65","65","0.5","3","2","2","","2","2","2","2","2","2","2","2","2","2","2","2","3","3","3","3","3","3","5","3","3","3","3","3","3","3","3","3","3","5","3","3","3","3","3","3","3","3","3","3","3","3","3","3","3","3","3","3","3","3","3","3","3","3","3","3","2","3","3","2","3","agree","null","","","","","","","","stim/T120.jpg","null","","",""
"html-keyboard-response","23","616792","0.0-8.0-1.5","wj1onw8mhp7x88q","1","60ff50bd87fb9ec9442e396a","21","08/2000","Single","Hindi","English","Female","Asian","No","Undergraduate degree","No, currently not in school","N/A","N/A","N/A","5","4","4","2","3","0.5","stim/N000.jpg","65","65","0.5","3","2","2","","2","2","2","2","2","2","2","2","2","2","2","2","3","3","3","3","3","3","5","3","3","3","3","3","3","3","3","3","3","5","3","3","3","3","3","3","3","3","3","3","3","3","3","3","3","3","3","3","3","3","3","3","3","3","3","3","2","3","3","2","3","agree","118.40000000596046","","","","","","","","<div style=""font-size:60px;"">?</div>","65","6","Practice","0.5"
"image-keyboard-response","24","617802","0.0-8.0-0.6","wj1onw8mhp7x88q","1","60ff50bd87fb9ec9442e396a","21","08/2000","Single","Hindi","English","Female","Asian","No","Undergraduate degree","No, currently not in school","N/A","N/A","N/A","5","4","4","2","3","0.5","stim/N000.jpg","65","65","0.5","3","2","2","","2","2","2","2","2","2","2","2","2","2","2","2","3","3","3","3","3","3","5","3","3","3","3","3","3","3","3","3","3","5","3","3","3","3","3","3","3","3","3","3","3","3","3","3","3","3","3","3","3","3","3","3","3","3","3","3","2","3","3","2","3","agree","null","","","","","","","","stim/H150.jpg","null","","",""
"html-keyboard-response","25","618142","0.0-8.0-1.6","wj1onw8mhp7x88q","1","60ff50bd87fb9ec9442e396a","21","08/2000","Single","Hindi","English","Female","Asian","No","Undergraduate degree","No, currently not in school","N/A","N/A","N/A","5","4","4","2","3","0.5","stim/N000.jpg","65","65","0.5","3","2","2","","2","2","2","2","2","2","2","2","2","2","2","2","3","3","3","3","3","3","5","3","3","3","3","3","3","3","3","3","3","5","3","3","3","3","3","3","3","3","3","3","3","3","3","3","3","3","3","3","3","3","3","3","3","3","3","3","2","3","3","2","3","agree","338.30000000447035","","","","","","","","<div style=""font-size:60px;"">?</div>","76","7","Practice","0.5"
"image-keyboard-response","26","619156","0.0-8.0-0.7","wj1onw8mhp7x88q","1","60ff50bd87fb9ec9442e396a","21","08/2000","Single","Hindi","English","Female","Asian","No","Undergraduate degree","No, currently not in school","N/A","N/A","N/A","5","4","4","2","3","0.5","stim/N000.jpg","65","65","0.5","3","2","2","","2","2","2","2","2","2","2","2","2","2","2","2","3","3","3","3","3","3","5","3","3","3","3","3","3","3","3","3","3","5","3","3","3","3","3","3","3","3","3","3","3","3","3","3","3","3","3","3","3","3","3","3","3","3","3","3","2","3","3","2","3","agree","null","","","","","","","","stim/H160.jpg","null","","",""
"html-keyboard-response","27","619455","0.0-8.0-1.7","wj1onw8mhp7x88q","1","60ff50bd87fb9ec9442e396a","21","08/2000","Single","Hindi","English","Female","Asian","No","Undergraduate degree","No, currently not in school","N/A","N/A","N/A","5","4","4","2","3","0.5","stim/N000.jpg","65","65","0.5","3","2","2","","2","2","2","2","2","2","2","2","2","2","2","2","3","3","3","3","3","3","5","3","3","3","3","3","3","3","3","3","3","5","3","3","3","3","3","3","3","3","3","3","3","3","3","3","3","3","3","3","3","3","3","3","3","3","3","3","2","3","3","2","3","agree","297.19999999552965","","","","","","","","<div style=""font-size:60px;"">?</div>","76","8","Practice","0.5"
"image-keyboard-response","28","620462","0.0-8.0-0.8","wj1onw8mhp7x88q","1","60ff50bd87fb9ec9442e396a","21","08/2000","Single","Hindi","English","Female","Asian","No","Undergraduate degree","No, currently not in school","N/A","N/A","N/A","5","4","4","2","3","0.5","stim/N000.jpg","65","65","0.5","3","2","2","","2","2","2","2","2","2","2","2","2","2","2","2","3","3","3","3","3","3","5","3","3","3","3","3","3","3","3","3","3","5","3","3","3","3","3","3","3","3","3","3","3","3","3","3","3","3","3","3","3","3","3","3","3","3","3","3","2","3","3","2","3","agree","null","","","","","","","","stim/T080.jpg","null","","",""
"html-keyboard-response","29","621554","0.0-8.0-1.8","wj1onw8mhp7x88q","1","60ff50bd87fb9ec9442e396a","21","08/2000","Single","Hindi","English","Female","Asian","No","Undergraduate degree","No, currently not in school","N/A","N/A","N/A","5","4","4","2","3","0.5","stim/N000.jpg","65","65","0.5","3","2","2","","2","2","2","2","2","2","2","2","2","2","2","2","3","3","3","3","3","3","5","3","3","3","3","3","3","3","3","3","3","5","3","3","3","3","3","3","3","3","3","3","3","3","3","3","3","3","3","3","3","3","3","3","3","3","3","3","2","3","3","2","3","agree","1090.1000000014901","","","","","","","","<div style=""font-size:60px;"">?</div>","76","9","Practice","0.5"
"image-keyboard-response","30","622561","0.0-8.0-0.9","wj1onw8mhp7x88q","1","60ff50bd87fb9ec9442e396a","21","08/2000","Single","Hindi","English","Female","Asian","No","Undergraduate degree","No, currently not in school","N/A","N/A","N/A","5","4","4","2","3","0.5","stim/N000.jpg","65","65","0.5","3","2","2","","2","2","2","2","2","2","2","2","2","2","2","2","3","3","3","3","3","3","5","3","3","3","3","3","3","3","3","3","3","5","3","3","3","3","3","3","3","3","3","3","3","3","3","3","3","3","3","3","3","3","3","3","3","3","3","3","2","3","3","2","3","agree","null","","","","","","","","stim/H170.jpg","null","","",""
"html-keyboard-response","31","622754","0.0-8.0-1.9","wj1onw8mhp7x88q","1","60ff50bd87fb9ec9442e396a","21","08/2000","Single","Hindi","English","Female","Asian","No","Undergraduate degree","No, currently not in school","N/A","N/A","N/A","5","4","4","2","3","0.5","stim/N000.jpg","65","65","0.5","3","2","2","","2","2","2","2","2","2","2","2","2","2","2","2","3","3","3","3","3","3","5","3","3","3","3","3","3","3","3","3","3","5","3","3","3","3","3","3","3","3","3","3","3","3","3","3","3","3","3","3","3","3","3","3","3","3","3","3","2","3","3","2","3","agree","191.60000000149012","","","","","","","","<div style=""font-size:60px;"">?</div>","76","10","Practice","0.5"
"html-keyboard-response","32","634005","0.0-9.0","wj1onw8mhp7x88q","1","60ff50bd87fb9ec9442e396a","21","08/2000","Single","Hindi","English","Female","Asian","No","Undergraduate degree","No, currently not in school","N/A","N/A","N/A","5","4","4","2","3","0.5","stim/N000.jpg","65","65","0.5","3","2","2","","2","2","2","2","2","2","2","2","2","2","2","2","3","3","3","3","3","3","5","3","3","3","3","3","3","3","3","3","3","5","3","3","3","3","3","3","3","3","3","3","3","3","3","3","3","3","3","3","3","3","3","3","3","3","3","3","2","3","3","2","3","agree","10745.30000000447","","","","","","","","<p>You have now completed the practice series.</p><p>If you have any questions, please reload this page and read the instructions again.</p><p>Otherwise, you're ready to begin the study!</p><p><strong>REMEMBER</strong>: Press <b>L </b>when you think the face is of Western origin, and <b>A </b>if not. </p><p>Press SPACE when you're ready to start!</p>","32","","",""
"html-keyboard-response","33","639099","0.0-10.0","wj1onw8mhp7x88q","1","60ff50bd87fb9ec9442e396a","21","08/2000","Single","Hindi","English","Female","Asian","No","Undergraduate degree","No, currently not in school","N/A","N/A","N/A","5","4","4","2","3","0.5","stim/N000.jpg","65","65","0.5","3","2","2","","2","2","2","2","2","2","2","2","2","2","2","2","3","3","3","3","3","3","5","3","3","3","3","3","3","3","3","3","3","5","3","3","3","3","3","3","3","3","3","3","3","3","3","3","3","3","3","3","3","3","3","3","3","3","3","3","2","3","3","2","3","agree","4586.10000000149","","","","","","","","<p>Block 1</p><p>Press SPACE to continue.</p>","32","","",""
"image-keyboard-response","34","640614","0.0-11.0-0.0","wj1onw8mhp7x88q","1","60ff50bd87fb9ec9442e396a","21","08/2000","Single","Hindi","English","Female","Asian","No","Undergraduate degree","No, currently not in school","N/A","N/A","N/A","5","4","4","2","3","0.5","stim/N000.jpg","65","65","0.5","3","2","2","","2","2","2","2","2","2","2","2","2","2","2","2","3","3","3","3","3","3","5","3","3","3","3","3","3","3","3","3","3","5","3","3","3","3","3","3","3","3","3","3","3","3","3","3","3","3","3","3","3","3","3","3","3","3","3","3","2","3","3","2","3","agree","null","","","","","","","","stim/T290.jpg","null","","",""
"html-keyboard-response","35","641996","0.0-11.0-1.0","wj1onw8mhp7x88q","1","60ff50bd87fb9ec9442e396a","21","08/2000","Single","Hindi","English","Female","Asian","No","Undergraduate degree","No, currently not in school","N/A","N/A","N/A","5","4","4","2","3","0.5","stim/N000.jpg","65","65","0.5","3","2","2","","2","2","2","2","2","2","2","2","2","2","2","2","3","3","3","3","3","3","5","3","3","3","3","3","3","3","3","3","3","5","3","3","3","3","3","3","3","3","3","3","3","3","3","3","3","3","3","3","3","3","3","3","3","3","3","3","2","3","3","2","3","agree","1380","","","","","","","","<div style=""font-size:60px;"">?</div>","65","1","1","0.8"
"image-keyboard-response","36","643005","0.0-11.0-0.1","wj1onw8mhp7x88q","1","60ff50bd87fb9ec9442e396a","21","08/2000","Single","Hindi","English","Female","Asian","No","Undergraduate degree","No, currently not in school","N/A","N/A","N/A","5","4","4","2","3","0.5","stim/N000.jpg","65","65","0.5","3","2","2","","2","2","2","2","2","2","2","2","2","2","2","2","3","3","3","3","3","3","5","3","3","3","3","3","3","3","3","3","3","5","3","3","3","3","3","3","3","3","3","3","3","3","3","3","3","3","3","3","3","3","3","3","3","3","3","3","2","3","3","2","3","agree","null","","","","","","","","stim/H110.jpg","null","","",""
"html-keyboard-response","37","643219","0.0-11.0-1.1","wj1onw8mhp7x88q","1","60ff50bd87fb9ec9442e396a","21","08/2000","Single","Hindi","English","Female","Asian","No","Undergraduate degree","No, currently not in school","N/A","N/A","N/A","5","4","4","2","3","0.5","stim/N000.jpg","65","65","0.5","3","2","2","","2","2","2","2","2","2","2","2","2","2","2","2","3","3","3","3","3","3","5","3","3","3","3","3","3","3","3","3","3","5","3","3","3","3","3","3","3","3","3","3","3","3","3","3","3","3","3","3","3","3","3","3","3","3","3","3","2","3","3","2","3","agree","212.60000000149012","","","","","","","","<div style=""font-size:60px;"">?</div>","76","2","1","0.8"
"image-keyboard-response","38","644235","0.0-11.0-0.2","wj1onw8mhp7x88q","1","60ff50bd87fb9ec9442e396a","21","08/2000","Single","Hindi","English","Female","Asian","No","Undergraduate degree","No, currently not in school","N/A","N/A","N/A","5","4","4","2","3","0.5","stim/N000.jpg","65","65","0.5","3","2","2","","2","2","2","2","2","2","2","2","2","2","2","2","3","3","3","3","3","3","5","3","3","3","3","3","3","3","3","3","3","5","3","3","3","3","3","3","3","3","3","3","3","3","3","3","3","3","3","3","3","3","3","3","3","3","3","3","2","3","3","2","3","agree","null","","","","","","","","stim/H010.jpg","null","","",""
"html-keyboard-response","39","644919","0.0-11.0-1.2","wj1onw8mhp7x88q","1","60ff50bd87fb9ec9442e396a","21","08/2000","Single","Hindi","English","Female","Asian","No","Undergraduate degree","No, currently not in school","N/A","N/A","N/A","5","4","4","2","3","0.5","stim/N000.jpg","65","65","0.5","3","2","2","","2","2","2","2","2","2","2","2","2","2","2","2","3","3","3","3","3","3","5","3","3","3","3","3","3","3","3","3","3","5","3","3","3","3","3","3","3","3","3","3","3","3","3","3","3","3","3","3","3","3","3","3","3","3","3","3","2","3","3","2","3","agree","682.4000000059605","","","","","","","","<div style=""font-size:60px;"">?</div>","76","3","1","0.8"
"image-keyboard-response","40","645928","0.0-11.0-0.3","wj1onw8mhp7x88q","1","60ff50bd87fb9ec9442e396a","21","08/2000","Single","Hindi","English","Female","Asian","No","Undergraduate degree","No, currently not in school","N/A","N/A","N/A","5","4","4","2","3","0.5","stim/N000.jpg","65","65","0.5","3","2","2","","2","2","2","2","2","2","2","2","2","2","2","2","3","3","3","3","3","3","5","3","3","3","3","3","3","3","3","3","3","5","3","3","3","3","3","3","3","3","3","3","3","3","3","3","3","3","3","3","3","3","3","3","3","3","3","3","2","3","3","2","3","agree","null","","","","","","","","stim/H220.jpg","null","","",""
"html-keyboard-response","41","645930","0.0-11.0-1.3","wj1onw8mhp7x88q","1","60ff50bd87fb9ec9442e396a","21","08/2000","Single","Hindi","English","Female","Asian","No","Undergraduate degree","No, currently not in school","N/A","N/A","N/A","5","4","4","2","3","0.5","stim/N000.jpg","65","65","0.5","3","2","2","","2","2","2","2","2","2","2","2","2","2","2","2","3","3","3","3","3","3","5","3","3","3","3","3","3","3","3","3","3","5","3","3","3","3","3","3","3","3","3","3","3","3","3","3","3","3","3","3","3","3","3","3","3","3","3","3","2","3","3","2","3","agree","0.8999999985098839","","","","","","","","<div style=""font-size:60px;"">?</div>","76","4","1","0.8"
"image-keyboard-response","42","646943","0.0-11.0-0.4","wj1onw8mhp7x88q","1","60ff50bd87fb9ec9442e396a","21","08/2000","Single","Hindi","English","Female","Asian","No","Undergraduate degree","No, currently not in school","N/A","N/A","N/A","5","4","4","2","3","0.5","stim/N000.jpg","65","65","0.5","3","2","2","","2","2","2","2","2","2","2","2","2","2","2","2","3","3","3","3","3","3","5","3","3","3","3","3","3","3","3","3","3","5","3","3","3","3","3","3","3","3","3","3","3","3","3","3","3","3","3","3","3","3","3","3","3","3","3","3","2","3","3","2","3","agree","null","","","","","","","","stim/H250.jpg","null","","",""
"html-keyboard-response","43","648886","0.0-11.0-1.4","wj1onw8mhp7x88q","1","60ff50bd87fb9ec9442e396a","21","08/2000","Single","Hindi","English","Female","Asian","No","Undergraduate degree","No, currently not in school","N/A","N/A","N/A","5","4","4","2","3","0.5","stim/N000.jpg","65","65","0.5","3","2","2","","2","2","2","2","2","2","2","2","2","2","2","2","3","3","3","3","3","3","5","3","3","3","3","3","3","3","3","3","3","5","3","3","3","3","3","3","3","3","3","3","3","3","3","3","3","3","3","3","3","3","3","3","3","3","3","3","2","3","3","2","3","agree","1940.8999999985099","","","","","","","","<div style=""font-size:60px;"">?</div>","76","5","1","0.8"
"image-keyboard-response","44","649892","0.0-11.0-0.5","wj1onw8mhp7x88q","1","60ff50bd87fb9ec9442e396a","21","08/2000","Single","Hindi","English","Female","Asian","No","Undergraduate degree","No, currently not in school","N/A","N/A","N/A","5","4","4","2","3","0.5","stim/N000.jpg","65","65","0.5","3","2","2","","2","2","2","2","2","2","2","2","2","2","2","2","3","3","3","3","3","3","5","3","3","3","3","3","3","3","3","3","3","5","3","3","3","3","3","3","3","3","3","3","3","3","3","3","3","3","3","3","3","3","3","3","3","3","3","3","2","3","3","2","3","agree","null","","","","","","","","stim/H240.jpg","null","","",""
"html-keyboard-response","45","649900","0.0-11.0-1.5","wj1onw8mhp7x88q","1","60ff50bd87fb9ec9442e396a","21","08/2000","Single","Hindi","English","Female","Asian","No","Undergraduate degree","No, currently not in school","N/A","N/A","N/A","5","4","4","2","3","0.5","stim/N000.jpg","65","65","0.5","3","2","2","","2","2","2","2","2","2","2","2","2","2","2","2","3","3","3","3","3","3","5","3","3","3","3","3","3","3","3","3","3","5","3","3","3","3","3","3","3","3","3","3","3","3","3","3","3","3","3","3","3","3","3","3","3","3","3","3","2","3","3","2","3","agree","7.100000001490116","","","","","","","","<div style=""font-size:60px;"">?</div>","76","6","1","0.8"
"image-keyboard-response","46","650907","0.0-11.0-0.6","wj1onw8mhp7x88q","1","60ff50bd87fb9ec9442e396a","21","08/2000","Single","Hindi","English","Female","Asian","No","Undergraduate degree","No, currently not in school","N/A","N/A","N/A","5","4","4","2","3","0.5","stim/N000.jpg","65","65","0.5","3","2","2","","2","2","2","2","2","2","2","2","2","2","2","2","3","3","3","3","3","3","5","3","3","3","3","3","3","3","3","3","3","5","3","3","3","3","3","3","3","3","3","3","3","3","3","3","3","3","3","3","3","3","3","3","3","3","3","3","2","3","3","2","3","agree","null","","","","","","","","stim/H210.jpg","null","","",""
"html-keyboard-response","47","651365","0.0-11.0-1.6","wj1onw8mhp7x88q","1","60ff50bd87fb9ec9442e396a","21","08/2000","Single","Hindi","English","Female","Asian","No","Undergraduate degree","No, currently not in school","N/A","N/A","N/A","5","4","4","2","3","0.5","stim/N000.jpg","65","65","0.5","3","2","2","","2","2","2","2","2","2","2","2","2","2","2","2","3","3","3","3","3","3","5","3","3","3","3","3","3","3","3","3","3","5","3","3","3","3","3","3","3","3","3","3","3","3","3","3","3","3","3","3","3","3","3","3","3","3","3","3","2","3","3","2","3","agree","456.5","","","","","","","","<div style=""font-size:60px;"">?</div>","76","7","1","0.8"
"image-keyboard-response","48","652378","0.0-11.0-0.7","wj1onw8mhp7x88q","1","60ff50bd87fb9ec9442e396a","21","08/2000","Single","Hindi","English","Female","Asian","No","Undergraduate degree","No, currently not in school","N/A","N/A","N/A","5","4","4","2","3","0.5","stim/N000.jpg","65","65","0.5","3","2","2","","2","2","2","2","2","2","2","2","2","2","2","2","3","3","3","3","3","3","5","3","3","3","3","3","3","3","3","3","3","5","3","3","3","3","3","3","3","3","3","3","3","3","3","3","3","3","3","3","3","3","3","3","3","3","3","3","2","3","3","2","3","agree","null","","","","","","","","stim/H080.jpg","null","","",""
"html-keyboard-response","49","652468","0.0-11.0-1.7","wj1onw8mhp7x88q","1","60ff50bd87fb9ec9442e396a","21","08/2000","Single","Hindi","English","Female","Asian","No","Undergraduate degree","No, currently not in school","N/A","N/A","N/A","5","4","4","2","3","0.5","stim/N000.jpg","65","65","0.5","3","2","2","","2","2","2","2","2","2","2","2","2","2","2","2","3","3","3","3","3","3","5","3","3","3","3","3","3","3","3","3","3","5","3","3","3","3","3","3","3","3","3","3","3","3","3","3","3","3","3","3","3","3","3","3","3","3","3","3","2","3","3","2","3","agree","88.39999999850988","","","","","","","","<div style=""font-size:60px;"">?</div>","76","8","1","0.8"
"image-keyboard-response","50","653473","0.0-11.0-0.8","wj1onw8mhp7x88q","1","60ff50bd87fb9ec9442e396a","21","08/2000","Single","Hindi","English","Female","Asian","No","Undergraduate degree","No, currently not in school","N/A","N/A","N/A","5","4","4","2","3","0.5","stim/N000.jpg","65","65","0.5","3","2","2","","2","2","2","2","2","2","2","2","2","2","2","2","3","3","3","3","3","3","5","3","3","3","3","3","3","3","3","3","3","5","3","3","3","3","3","3","3","3","3","3","3","3","3","3","3","3","3","3","3","3","3","3","3","3","3","3","2","3","3","2","3","agree","null","","","","","","","","stim/H180.jpg","null","","",""
"html-keyboard-response","51","654435","0.0-11.0-1.8","wj1onw8mhp7x88q","1","60ff50bd87fb9ec9442e396a","21","08/2000","Single","Hindi","English","Female","Asian","No","Undergraduate degree","No, currently not in school","N/A","N/A","N/A","5","4","4","2","3","0.5","stim/N000.jpg","65","65","0.5","3","2","2","","2","2","2","2","2","2","2","2","2","2","2","2","3","3","3","3","3","3","5","3","3","3","3","3","3","3","3","3","3","5","3","3","3","3","3","3","3","3","3","3","3","3","3","3","3","3","3","3","3","3","3","3","3","3","3","3","2","3","3","2","3","agree","961","","","","","","","","<div style=""font-size:60px;"">?</div>","76","9","1","0.8"
"image-keyboard-response","52","655450","0.0-11.0-0.9","wj1onw8mhp7x88q","1","60ff50bd87fb9ec9442e396a","21","08/2000","Single","Hindi","English","Female","Asian","No","Undergraduate degree","No, currently not in school","N/A","N/A","N/A","5","4","4","2","3","0.5","stim/N000.jpg","65","65","0.5","3","2","2","","2","2","2","2","2","2","2","2","2","2","2","2","3","3","3","3","3","3","5","3","3","3","3","3","3","3","3","3","3","5","3","3","3","3","3","3","3","3","3","3","3","3","3","3","3","3","3","3","3","3","3","3","3","3","3","3","2","3","3","2","3","agree","null","","","","","","","","stim/T120.jpg","null","","",""
"html-keyboard-response","53","655499","0.0-11.0-1.9","wj1onw8mhp7x88q","1","60ff50bd87fb9ec9442e396a","21","08/2000","Single","Hindi","English","Female","Asian","No","Undergraduate degree","No, currently not in school","N/A","N/A","N/A","5","4","4","2","3","0.5","stim/N000.jpg","65","65","0.5","3","2","2","","2","2","2","2","2","2","2","2","2","2","2","2","3","3","3","3","3","3","5","3","3","3","3","3","3","3","3","3","3","5","3","3","3","3","3","3","3","3","3","3","3","3","3","3","3","3","3","3","3","3","3","3","3","3","3","3","2","3","3","2","3","agree","47.399999998509884","","","","","","","","<div style=""font-size:60px;"">?</div>","65","10","1","0.8"
"image-keyboard-response","54","656512","0.0-11.0-0.10","wj1onw8mhp7x88q","1","60ff50bd87fb9ec9442e396a","21","08/2000","Single","Hindi","English","Female","Asian","No","Undergraduate degree","No, currently not in school","N/A","N/A","N/A","5","4","4","2","3","0.5","stim/N000.jpg","65","65","0.5","3","2","2","","2","2","2","2","2","2","2","2","2","2","2","2","3","3","3","3","3","3","5","3","3","3","3","3","3","3","3","3","3","5","3","3","3","3","3","3","3","3","3","3","3","3","3","3","3","3","3","3","3","3","3","3","3","3","3","3","2","3","3","2","3","agree","null","","","","","","","","stim/H270.jpg","null","","",""
"html-keyboard-response","55","656588","0.0-11.0-1.10","wj1onw8mhp7x88q","1","60ff50bd87fb9ec9442e396a","21","08/2000","Single","Hindi","English","Female","Asian","No","Undergraduate degree","No, currently not in school","N/A","N/A","N/A","5","4","4","2","3","0.5","stim/N000.jpg","65","65","0.5","3","2","2","","2","2","2","2","2","2","2","2","2","2","2","2","3","3","3","3","3","3","5","3","3","3","3","3","3","3","3","3","3","5","3","3","3","3","3","3","3","3","3","3","3","3","3","3","3","3","3","3","3","3","3","3","3","3","3","3","2","3","3","2","3","agree","74.19999999552965","","","","","","","","<div style=""font-size:60px;"">?</div>","76","11","1","0.8"
"image-keyboard-response","56","657598","0.0-11.0-0.11","wj1onw8mhp7x88q","1","60ff50bd87fb9ec9442e396a","21","08/2000","Single","Hindi","English","Female","Asian","No","Undergraduate degree","No, currently not in school","N/A","N/A","N/A","5","4","4","2","3","0.5","stim/N000.jpg","65","65","0.5","3","2","2","","2","2","2","2","2","2","2","2","2","2","2","2","3","3","3","3","3","3","5","3","3","3","3","3","3","3","3","3","3","5","3","3","3","3","3","3","3","3","3","3","3","3","3","3","3","3","3","3","3","3","3","3","3","3","3","3","2","3","3","2","3","agree","null","","","","","","","","stim/H220.jpg","null","","",""
"html-keyboard-response","57","658706","0.0-11.0-1.11","wj1onw8mhp7x88q","1","60ff50bd87fb9ec9442e396a","21","08/2000","Single","Hindi","English","Female","Asian","No","Undergraduate degree","No, currently not in school","N/A","N/A","N/A","5","4","4","2","3","0.5","stim/N000.jpg","65","65","0.5","3","2","2","","2","2","2","2","2","2","2","2","2","2","2","2","3","3","3","3","3","3","5","3","3","3","3","3","3","3","3","3","3","5","3","3","3","3","3","3","3","3","3","3","3","3","3","3","3","3","3","3","3","3","3","3","3","3","3","3","2","3","3","2","3","agree","1106.5","","","","","","","","<div style=""font-size:60px;"">?</div>","76","12","1","0.8"
"image-keyboard-response","58","659712","0.0-11.0-0.12","wj1onw8mhp7x88q","1","60ff50bd87fb9ec9442e396a","21","08/2000","Single","Hindi","English","Female","Asian","No","Undergraduate degree","No, currently not in school","N/A","N/A","N/A","5","4","4","2","3","0.5","stim/N000.jpg","65","65","0.5","3","2","2","","2","2","2","2","2","2","2","2","2","2","2","2","3","3","3","3","3","3","5","3","3","3","3","3","3","3","3","3","3","5","3","3","3","3","3","3","3","3","3","3","3","3","3","3","3","3","3","3","3","3","3","3","3","3","3","3","2","3","3","2","3","agree","null","","","","","","","","stim/H200.jpg","null","","",""
"html-keyboard-response","59","660155","0.0-11.0-1.12","wj1onw8mhp7x88q","1","60ff50bd87fb9ec9442e396a","21","08/2000","Single","Hindi","English","Female","Asian","No","Undergraduate degree","No, currently not in school","N/A","N/A","N/A","5","4","4","2","3","0.5","stim/N000.jpg","65","65","0.5","3","2","2","","2","2","2","2","2","2","2","2","2","2","2","2","3","3","3","3","3","3","5","3","3","3","3","3","3","3","3","3","3","5","3","3","3","3","3","3","3","3","3","3","3","3","3","3","3","3","3","3","3","3","3","3","3","3","3","3","2","3","3","2","3","agree","441.5","","","","","","","","<div style=""font-size:60px;"">?</div>","76","13","1","0.8"
"image-keyboard-response","60","661169","0.0-11.0-0.13","wj1onw8mhp7x88q","1","60ff50bd87fb9ec9442e396a","21","08/2000","Single","Hindi","English","Female","Asian","No","Undergraduate degree","No, currently not in school","N/A","N/A","N/A","5","4","4","2","3","0.5","stim/N000.jpg","65","65","0.5","3","2","2","","2","2","2","2","2","2","2","2","2","2","2","2","3","3","3","3","3","3","5","3","3","3","3","3","3","3","3","3","3","5","3","3","3","3","3","3","3","3","3","3","3","3","3","3","3","3","3","3","3","3","3","3","3","3","3","3","2","3","3","2","3","agree","null","","","","","","","","stim/T170.jpg","null","","",""
"html-keyboard-response","61","661276","0.0-11.0-1.13","wj1onw8mhp7x88q","1","60ff50bd87fb9ec9442e396a","21","08/2000","Single","Hindi","English","Female","Asian","No","Undergraduate degree","No, currently not in school","N/A","N/A","N/A","5","4","4","2","3","0.5","stim/N000.jpg","65","65","0.5","3","2","2","","2","2","2","2","2","2","2","2","2","2","2","2","3","3","3","3","3","3","5","3","3","3","3","3","3","3","3","3","3","5","3","3","3","3","3","3","3","3","3","3","3","3","3","3","3","3","3","3","3","3","3","3","3","3","3","3","2","3","3","2","3","agree","105.69999999552965","","","","","","","","<div style=""font-size:60px;"">?</div>","65","14","1","0.8"
"image-keyboard-response","62","662287","0.0-11.0-0.14","wj1onw8mhp7x88q","1","60ff50bd87fb9ec9442e396a","21","08/2000","Single","Hindi","English","Female","Asian","No","Undergraduate degree","No, currently not in school","N/A","N/A","N/A","5","4","4","2","3","0.5","stim/N000.jpg","65","65","0.5","3","2","2","","2","2","2","2","2","2","2","2","2","2","2","2","3","3","3","3","3","3","5","3","3","3","3","3","3","3","3","3","3","5","3","3","3","3","3","3","3","3","3","3","3","3","3","3","3","3","3","3","3","3","3","3","3","3","3","3","2","3","3","2","3","agree","null","","","","","","","","stim/T170.jpg","null","","",""
"html-keyboard-response","63","662342","0.0-11.0-1.14","wj1onw8mhp7x88q","1","60ff50bd87fb9ec9442e396a","21","08/2000","Single","Hindi","English","Female","Asian","No","Undergraduate degree","No, currently not in school","N/A","N/A","N/A","5","4","4","2","3","0.5","stim/N000.jpg","65","65","0.5","3","2","2","","2","2","2","2","2","2","2","2","2","2","2","2","3","3","3","3","3","3","5","3","3","3","3","3","3","3","3","3","3","5","3","3","3","3","3","3","3","3","3","3","3","3","3","3","3","3","3","3","3","3","3","3","3","3","3","3","2","3","3","2","3","agree","53","","","","","","","","<div style=""font-size:60px;"">?</div>","65","15","1","0.8"
"image-keyboard-response","64","663357","0.0-11.0-0.15","wj1onw8mhp7x88q","1","60ff50bd87fb9ec9442e396a","21","08/2000","Single","Hindi","English","Female","Asian","No","Undergraduate degree","No, currently not in school","N/A","N/A","N/A","5","4","4","2","3","0.5","stim/N000.jpg","65","65","0.5","3","2","2","","2","2","2","2","2","2","2","2","2","2","2","2","3","3","3","3","3","3","5","3","3","3","3","3","3","3","3","3","3","5","3","3","3","3","3","3","3","3","3","3","3","3","3","3","3","3","3","3","3","3","3","3","3","3","3","3","2","3","3","2","3","agree","null","","","","","","","","stim/H210.jpg","null","","",""
"html-keyboard-response","65","663950","0.0-11.0-1.15","wj1onw8mhp7x88q","1","60ff50bd87fb9ec9442e396a","21","08/2000","Single","Hindi","English","Female","Asian","No","Undergraduate degree","No, currently not in school","N/A","N/A","N/A","5","4","4","2","3","0.5","stim/N000.jpg","65","65","0.5","3","2","2","","2","2","2","2","2","2","2","2","2","2","2","2","3","3","3","3","3","3","5","3","3","3","3","3","3","3","3","3","3","5","3","3","3","3","3","3","3","3","3","3","3","3","3","3","3","3","3","3","3","3","3","3","3","3","3","3","2","3","3","2","3","agree","590.6000000014901","","","","","","","","<div style=""font-size:60px;"">?</div>","76","16","1","0.8"
"image-keyboard-response","66","664965","0.0-11.0-0.16","wj1onw8mhp7x88q","1","60ff50bd87fb9ec9442e396a","21","08/2000","Single","Hindi","English","Female","Asian","No","Undergraduate degree","No, currently not in school","N/A","N/A","N/A","5","4","4","2","3","0.5","stim/N000.jpg","65","65","0.5","3","2","2","","2","2","2","2","2","2","2","2","2","2","2","2","3","3","3","3","3","3","5","3","3","3","3","3","3","3","3","3","3","5","3","3","3","3","3","3","3","3","3","3","3","3","3","3","3","3","3","3","3","3","3","3","3","3","3","3","2","3","3","2","3","agree","null","","","","","","","","stim/H300.jpg","null","","",""
"html-keyboard-response","67","665175","0.0-11.0-1.16","wj1onw8mhp7x88q","1","60ff50bd87fb9ec9442e396a","21","08/2000","Single","Hindi","English","Female","Asian","No","Undergraduate degree","No, currently not in school","N/A","N/A","N/A","5","4","4","2","3","0.5","stim/N000.jpg","65","65","0.5","3","2","2","","2","2","2","2","2","2","2","2","2","2","2","2","3","3","3","3","3","3","5","3","3","3","3","3","3","3","3","3","3","5","3","3","3","3","3","3","3","3","3","3","3","3","3","3","3","3","3","3","3","3","3","3","3","3","3","3","2","3","3","2","3","agree","207.19999999552965","","","","","","","","<div style=""font-size:60px;"">?</div>","76","17","1","0.8"
"image-keyboard-response","68","666190","0.0-11.0-0.17","wj1onw8mhp7x88q","1","60ff50bd87fb9ec9442e396a","21","08/2000","Single","Hindi","English","Female","Asian","No","Undergraduate degree","No, currently not in school","N/A","N/A","N/A","5","4","4","2","3","0.5","stim/N000.jpg","65","65","0.5","3","2","2","","2","2","2","2","2","2","2","2","2","2","2","2","3","3","3","3","3","3","5","3","3","3","3","3","3","3","3","3","3","5","3","3","3","3","3","3","3","3","3","3","3","3","3","3","3","3","3","3","3","3","3","3","3","3","3","3","2","3","3","2","3","agree","null","","","","","","","","stim/H290.jpg","null","","",""
"html-keyboard-response","69","666380","0.0-11.0-1.17","wj1onw8mhp7x88q","1","60ff50bd87fb9ec9442e396a","21","08/2000","Single","Hindi","English","Female","Asian","No","Undergraduate degree","No, currently not in school","N/A","N/A","N/A","5","4","4","2","3","0.5","stim/N000.jpg","65","65","0.5","3","2","2","","2","2","2","2","2","2","2","2","2","2","2","2","3","3","3","3","3","3","5","3","3","3","3","3","3","3","3","3","3","5","3","3","3","3","3","3","3","3","3","3","3","3","3","3","3","3","3","3","3","3","3","3","3","3","3","3","2","3","3","2","3","agree","187.90000000596046","","","","","","","","<div style=""font-size:60px;"">?</div>","76","18","1","0.8"
"image-keyboard-response","70","667396","0.0-11.0-0.18","wj1onw8mhp7x88q","1","60ff50bd87fb9ec9442e396a","21","08/2000","Single","Hindi","English","Female","Asian","No","Undergraduate degree","No, currently not in school","N/A","N/A","N/A","5","4","4","2","3","0.5","stim/N000.jpg","65","65","0.5","3","2","2","","2","2","2","2","2","2","2","2","2","2","2","2","3","3","3","3","3","3","5","3","3","3","3","3","3","3","3","3","3","5","3","3","3","3","3","3","3","3","3","3","3","3","3","3","3","3","3","3","3","3","3","3","3","3","3","3","2","3","3","2","3","agree","null","","","","","","","","stim/H180.jpg","null","","",""
"html-keyboard-response","71","667729","0.0-11.0-1.18","wj1onw8mhp7x88q","1","60ff50bd87fb9ec9442e396a","21","08/2000","Single","Hindi","English","Female","Asian","No","Undergraduate degree","No, currently not in school","N/A","N/A","N/A","5","4","4","2","3","0.5","stim/N000.jpg","65","65","0.5","3","2","2","","2","2","2","2","2","2","2","2","2","2","2","2","3","3","3","3","3","3","5","3","3","3","3","3","3","3","3","3","3","5","3","3","3","3","3","3","3","3","3","3","3","3","3","3","3","3","3","3","3","3","3","3","3","3","3","3","2","3","3","2","3","agree","331.79999999701977","","","","","","","","<div style=""font-size:60px;"">?</div>","76","19","1","0.8"
"image-keyboard-response","72","668741","0.0-11.0-0.19","wj1onw8mhp7x88q","1","60ff50bd87fb9ec9442e396a","21","08/2000","Single","Hindi","English","Female","Asian","No","Undergraduate degree","No, currently not in school","N/A","N/A","N/A","5","4","4","2","3","0.5","stim/N000.jpg","65","65","0.5","3","2","2","","2","2","2","2","2","2","2","2","2","2","2","2","3","3","3","3","3","3","5","3","3","3","3","3","3","3","3","3","3","5","3","3","3","3","3","3","3","3","3","3","3","3","3","3","3","3","3","3","3","3","3","3","3","3","3","3","2","3","3","2","3","agree","null","","","","","","","","stim/H170.jpg","null","","",""
"html-keyboard-response","73","668905","0.0-11.0-1.19","wj1onw8mhp7x88q","1","60ff50bd87fb9ec9442e396a","21","08/2000","Single","Hindi","English","Female","Asian","No","Undergraduate degree","No, currently not in school","N/A","N/A","N/A","5","4","4","2","3","0.5","stim/N000.jpg","65","65","0.5","3","2","2","","2","2","2","2","2","2","2","2","2","2","2","2","3","3","3","3","3","3","5","3","3","3","3","3","3","3","3","3","3","5","3","3","3","3","3","3","3","3","3","3","3","3","3","3","3","3","3","3","3","3","3","3","3","3","3","3","2","3","3","2","3","agree","162.80000000447035","","","","","","","","<div style=""font-size:60px;"">?</div>","76","20","1","0.8"
"image-keyboard-response","74","669919","0.0-11.0-0.20","wj1onw8mhp7x88q","1","60ff50bd87fb9ec9442e396a","21","08/2000","Single","Hindi","English","Female","Asian","No","Undergraduate degree","No, currently not in school","N/A","N/A","N/A","5","4","4","2","3","0.5","stim/N000.jpg","65","65","0.5","3","2","2","","2","2","2","2","2","2","2","2","2","2","2","2","3","3","3","3","3","3","5","3","3","3","3","3","3","3","3","3","3","5","3","3","3","3","3","3","3","3","3","3","3","3","3","3","3","3","3","3","3","3","3","3","3","3","3","3","2","3","3","2","3","agree","null","","","","","","","","stim/T200.jpg","null","","",""
"html-keyboard-response","75","670006","0.0-11.0-1.20","wj1onw8mhp7x88q","1","60ff50bd87fb9ec9442e396a","21","08/2000","Single","Hindi","English","Female","Asian","No","Undergraduate degree","No, currently not in school","N/A","N/A","N/A","5","4","4","2","3","0.5","stim/N000.jpg","65","65","0.5","3","2","2","","2","2","2","2","2","2","2","2","2","2","2","2","3","3","3","3","3","3","5","3","3","3","3","3","3","3","3","3","3","5","3","3","3","3","3","3","3","3","3","3","3","3","3","3","3","3","3","3","3","3","3","3","3","3","3","3","2","3","3","2","3","agree","85.5","","","","","","","","<div style=""font-size:60px;"">?</div>","65","21","1","0.8"
"image-keyboard-response","76","671018","0.0-11.0-0.21","wj1onw8mhp7x88q","1","60ff50bd87fb9ec9442e396a","21","08/2000","Single","Hindi","English","Female","Asian","No","Undergraduate degree","No, currently not in school","N/A","N/A","N/A","5","4","4","2","3","0.5","stim/N000.jpg","65","65","0.5","3","2","2","","2","2","2","2","2","2","2","2","2","2","2","2","3","3","3","3","3","3","5","3","3","3","3","3","3","3","3","3","3","5","3","3","3","3","3","3","3","3","3","3","3","3","3","3","3","3","3","3","3","3","3","3","3","3","3","3","2","3","3","2","3","agree","null","","","","","","","","stim/H150.jpg","null","","",""
"html-keyboard-response","77","671128","0.0-11.0-1.21","wj1onw8mhp7x88q","1","60ff50bd87fb9ec9442e396a","21","08/2000","Single","Hindi","English","Female","Asian","No","Undergraduate degree","No, currently not in school","N/A","N/A","N/A","5","4","4","2","3","0.5","stim/N000.jpg","65","65","0.5","3","2","2","","2","2","2","2","2","2","2","2","2","2","2","2","3","3","3","3","3","3","5","3","3","3","3","3","3","3","3","3","3","5","3","3","3","3","3","3","3","3","3","3","3","3","3","3","3","3","3","3","3","3","3","3","3","3","3","3","2","3","3","2","3","agree","108.10000000149012","","","","","","","","<div style=""font-size:60px;"">?</div>","76","22","1","0.8"
"image-keyboard-response","78","672139","0.0-11.0-0.22","wj1onw8mhp7x88q","1","60ff50bd87fb9ec9442e396a","21","08/2000","Single","Hindi","English","Female","Asian","No","Undergraduate degree","No, currently not in school","N/A","N/A","N/A","5","4","4","2","3","0.5","stim/N000.jpg","65","65","0.5","3","2","2","","2","2","2","2","2","2","2","2","2","2","2","2","3","3","3","3","3","3","5","3","3","3","3","3","3","3","3","3","3","5","3","3","3","3","3","3","3","3","3","3","3","3","3","3","3","3","3","3","3","3","3","3","3","3","3","3","2","3","3","2","3","agree","null","","","","","","","","stim/H210.jpg","null","","",""
"html-keyboard-response","79","672303","0.0-11.0-1.22","wj1onw8mhp7x88q","1","60ff50bd87fb9ec9442e396a","21","08/2000","Single","Hindi","English","Female","Asian","No","Undergraduate degree","No, currently not in school","N/A","N/A","N/A","5","4","4","2","3","0.5","stim/N000.jpg","65","65","0.5","3","2","2","","2","2","2","2","2","2","2","2","2","2","2","2","3","3","3","3","3","3","5","3","3","3","3","3","3","3","3","3","3","5","3","3","3","3","3","3","3","3","3","3","3","3","3","3","3","3","3","3","3","3","3","3","3","3","3","3","2","3","3","2","3","agree","162.39999999850988","","","","","","","","<div style=""font-size:60px;"">?</div>","76","23","1","0.8"
"image-keyboard-response","80","673314","0.0-11.0-0.23","wj1onw8mhp7x88q","1","60ff50bd87fb9ec9442e396a","21","08/2000","Single","Hindi","English","Female","Asian","No","Undergraduate degree","No, currently not in school","N/A","N/A","N/A","5","4","4","2","3","0.5","stim/N000.jpg","65","65","0.5","3","2","2","","2","2","2","2","2","2","2","2","2","2","2","2","3","3","3","3","3","3","5","3","3","3","3","3","3","3","3","3","3","5","3","3","3","3","3","3","3","3","3","3","3","3","3","3","3","3","3","3","3","3","3","3","3","3","3","3","2","3","3","2","3","agree","null","","","","","","","","stim/H140.jpg","null","","",""
"html-keyboard-response","81","673413","0.0-11.0-1.23","wj1onw8mhp7x88q","1","60ff50bd87fb9ec9442e396a","21","08/2000","Single","Hindi","English","Female","Asian","No","Undergraduate degree","No, currently not in school","N/A","N/A","N/A","5","4","4","2","3","0.5","stim/N000.jpg","65","65","0.5","3","2","2","","2","2","2","2","2","2","2","2","2","2","2","2","3","3","3","3","3","3","5","3","3","3","3","3","3","3","3","3","3","5","3","3","3","3","3","3","3","3","3","3","3","3","3","3","3","3","3","3","3","3","3","3","3","3","3","3","2","3","3","2","3","agree","96.90000000596046","","","","","","","","<div style=""font-size:60px;"">?</div>","76","24","1","0.8"
"image-keyboard-response","82","674429","0.0-11.0-0.24","wj1onw8mhp7x88q","1","60ff50bd87fb9ec9442e396a","21","08/2000","Single","Hindi","English","Female","Asian","No","Undergraduate degree","No, currently not in school","N/A","N/A","N/A","5","4","4","2","3","0.5","stim/N000.jpg","65","65","0.5","3","2","2","","2","2","2","2","2","2","2","2","2","2","2","2","3","3","3","3","3","3","5","3","3","3","3","3","3","3","3","3","3","5","3","3","3","3","3","3","3","3","3","3","3","3","3","3","3","3","3","3","3","3","3","3","3","3","3","3","2","3","3","2","3","agree","null","","","","","","","","stim/H130.jpg","null","","",""
"html-keyboard-response","83","675937","0.0-11.0-1.24","wj1onw8mhp7x88q","1","60ff50bd87fb9ec9442e396a","21","08/2000","Single","Hindi","English","Female","Asian","No","Undergraduate degree","No, currently not in school","N/A","N/A","N/A","5","4","4","2","3","0.5","stim/N000.jpg","65","65","0.5","3","2","2","","2","2","2","2","2","2","2","2","2","2","2","2","3","3","3","3","3","3","5","3","3","3","3","3","3","3","3","3","3","5","3","3","3","3","3","3","3","3","3","3","3","3","3","3","3","3","3","3","3","3","3","3","3","3","3","3","2","3","3","2","3","agree","1506.7999999970198","","","","","","","","<div style=""font-size:60px;"">?</div>","76","25","1","0.8"
"image-keyboard-response","84","676941","0.0-11.0-0.25","wj1onw8mhp7x88q","1","60ff50bd87fb9ec9442e396a","21","08/2000","Single","Hindi","English","Female","Asian","No","Undergraduate degree","No, currently not in school","N/A","N/A","N/A","5","4","4","2","3","0.5","stim/N000.jpg","65","65","0.5","3","2","2","","2","2","2","2","2","2","2","2","2","2","2","2","3","3","3","3","3","3","5","3","3","3","3","3","3","3","3","3","3","5","3","3","3","3","3","3","3","3","3","3","3","3","3","3","3","3","3","3","3","3","3","3","3","3","3","3","2","3","3","2","3","agree","null","","","","","","","","stim/T220.jpg","null","","",""
"html-keyboard-response","85","677009","0.0-11.0-1.25","wj1onw8mhp7x88q","1","60ff50bd87fb9ec9442e396a","21","08/2000","Single","Hindi","English","Female","Asian","No","Undergraduate degree","No, currently not in school","N/A","N/A","N/A","5","4","4","2","3","0.5","stim/N000.jpg","65","65","0.5","3","2","2","","2","2","2","2","2","2","2","2","2","2","2","2","3","3","3","3","3","3","5","3","3","3","3","3","3","3","3","3","3","5","3","3","3","3","3","3","3","3","3","3","3","3","3","3","3","3","3","3","3","3","3","3","3","3","3","3","2","3","3","2","3","agree","66.5","","","","","","","","<div style=""font-size:60px;"">?</div>","65","26","1","0.8"
"image-keyboard-response","86","678023","0.0-11.0-0.26","wj1onw8mhp7x88q","1","60ff50bd87fb9ec9442e396a","21","08/2000","Single","Hindi","English","Female","Asian","No","Undergraduate degree","No, currently not in school","N/A","N/A","N/A","5","4","4","2","3","0.5","stim/N000.jpg","65","65","0.5","3","2","2","","2","2","2","2","2","2","2","2","2","2","2","2","3","3","3","3","3","3","5","3","3","3","3","3","3","3","3","3","3","5","3","3","3","3","3","3","3","3","3","3","3","3","3","3","3","3","3","3","3","3","3","3","3","3","3","3","2","3","3","2","3","agree","null","","","","","","","","stim/H110.jpg","null","","",""
"html-keyboard-response","87","678124","0.0-11.0-1.26","wj1onw8mhp7x88q","1","60ff50bd87fb9ec9442e396a","21","08/2000","Single","Hindi","English","Female","Asian","No","Undergraduate degree","No, currently not in school","N/A","N/A","N/A","5","4","4","2","3","0.5","stim/N000.jpg","65","65","0.5","3","2","2","","2","2","2","2","2","2","2","2","2","2","2","2","3","3","3","3","3","3","5","3","3","3","3","3","3","3","3","3","3","5","3","3","3","3","3","3","3","3","3","3","3","3","3","3","3","3","3","3","3","3","3","3","3","3","3","3","2","3","3","2","3","agree","99.89999999850988","","","","","","","","<div style=""font-size:60px;"">?</div>","76","27","1","0.8"
"image-keyboard-response","88","679140","0.0-11.0-0.27","wj1onw8mhp7x88q","1","60ff50bd87fb9ec9442e396a","21","08/2000","Single","Hindi","English","Female","Asian","No","Undergraduate degree","No, currently not in school","N/A","N/A","N/A","5","4","4","2","3","0.5","stim/N000.jpg","65","65","0.5","3","2","2","","2","2","2","2","2","2","2","2","2","2","2","2","3","3","3","3","3","3","5","3","3","3","3","3","3","3","3","3","3","5","3","3","3","3","3","3","3","3","3","3","3","3","3","3","3","3","3","3","3","3","3","3","3","3","3","3","2","3","3","2","3","agree","null","","","","","","","","stim/H190.jpg","null","","",""
"html-keyboard-response","89","679216","0.0-11.0-1.27","wj1onw8mhp7x88q","1","60ff50bd87fb9ec9442e396a","21","08/2000","Single","Hindi","English","Female","Asian","No","Undergraduate degree","No, currently not in school","N/A","N/A","N/A","5","4","4","2","3","0.5","stim/N000.jpg","65","65","0.5","3","2","2","","2","2","2","2","2","2","2","2","2","2","2","2","3","3","3","3","3","3","5","3","3","3","3","3","3","3","3","3","3","5","3","3","3","3","3","3","3","3","3","3","3","3","3","3","3","3","3","3","3","3","3","3","3","3","3","3","2","3","3","2","3","agree","74","","","","","","","","<div style=""font-size:60px;"">?</div>","76","28","1","0.8"
"image-keyboard-response","90","680229","0.0-11.0-0.28","wj1onw8mhp7x88q","1","60ff50bd87fb9ec9442e396a","21","08/2000","Single","Hindi","English","Female","Asian","No","Undergraduate degree","No, currently not in school","N/A","N/A","N/A","5","4","4","2","3","0.5","stim/N000.jpg","65","65","0.5","3","2","2","","2","2","2","2","2","2","2","2","2","2","2","2","3","3","3","3","3","3","5","3","3","3","3","3","3","3","3","3","3","5","3","3","3","3","3","3","3","3","3","3","3","3","3","3","3","3","3","3","3","3","3","3","3","3","3","3","2","3","3","2","3","agree","null","","","","","","","","stim/H030.jpg","null","","",""
"html-keyboard-response","91","680325","0.0-11.0-1.28","wj1onw8mhp7x88q","1","60ff50bd87fb9ec9442e396a","21","08/2000","Single","Hindi","English","Female","Asian","No","Undergraduate degree","No, currently not in school","N/A","N/A","N/A","5","4","4","2","3","0.5","stim/N000.jpg","65","65","0.5","3","2","2","","2","2","2","2","2","2","2","2","2","2","2","2","3","3","3","3","3","3","5","3","3","3","3","3","3","3","3","3","3","5","3","3","3","3","3","3","3","3","3","3","3","3","3","3","3","3","3","3","3","3","3","3","3","3","3","3","2","3","3","2","3","agree","94.39999999850988","","","","","","","","<div style=""font-size:60px;"">?</div>","76","29","1","0.8"
"image-keyboard-response","92","681334","0.0-11.0-0.29","wj1onw8mhp7x88q","1","60ff50bd87fb9ec9442e396a","21","08/2000","Single","Hindi","English","Female","Asian","No","Undergraduate degree","No, currently not in school","N/A","N/A","N/A","5","4","4","2","3","0.5","stim/N000.jpg","65","65","0.5","3","2","2","","2","2","2","2","2","2","2","2","2","2","2","2","3","3","3","3","3","3","5","3","3","3","3","3","3","3","3","3","3","5","3","3","3","3","3","3","3","3","3","3","3","3","3","3","3","3","3","3","3","3","3","3","3","3","3","3","2","3","3","2","3","agree","null","","","","","","","","stim/H230.jpg","null","","",""
"html-keyboard-response","93","681444","0.0-11.0-1.29","wj1onw8mhp7x88q","1","60ff50bd87fb9ec9442e396a","21","08/2000","Single","Hindi","English","Female","Asian","No","Undergraduate degree","No, currently not in school","N/A","N/A","N/A","5","4","4","2","3","0.5","stim/N000.jpg","65","65","0.5","3","2","2","","2","2","2","2","2","2","2","2","2","2","2","2","3","3","3","3","3","3","5","3","3","3","3","3","3","3","3","3","3","5","3","3","3","3","3","3","3","3","3","3","3","3","3","3","3","3","3","3","3","3","3","3","3","3","3","3","2","3","3","2","3","agree","107.80000000447035","","","","","","","","<div style=""font-size:60px;"">?</div>","76","30","1","0.8"
"image-keyboard-response","94","682454","0.0-11.0-0.30","wj1onw8mhp7x88q","1","60ff50bd87fb9ec9442e396a","21","08/2000","Single","Hindi","English","Female","Asian","No","Undergraduate degree","No, currently not in school","N/A","N/A","N/A","5","4","4","2","3","0.5","stim/N000.jpg","65","65","0.5","3","2","2","","2","2","2","2","2","2","2","2","2","2","2","2","3","3","3","3","3","3","5","3","3","3","3","3","3","3","3","3","3","5","3","3","3","3","3","3","3","3","3","3","3","3","3","3","3","3","3","3","3","3","3","3","3","3","3","3","2","3","3","2","3","agree","null","","","","","","","","stim/H030.jpg","null","","",""
"html-keyboard-response","95","682459","0.0-11.0-1.30","wj1onw8mhp7x88q","1","60ff50bd87fb9ec9442e396a","21","08/2000","Single","Hindi","English","Female","Asian","No","Undergraduate degree","No, currently not in school","N/A","N/A","N/A","5","4","4","2","3","0.5","stim/N000.jpg","65","65","0.5","3","2","2","","2","2","2","2","2","2","2","2","2","2","2","2","3","3","3","3","3","3","5","3","3","3","3","3","3","3","3","3","3","5","3","3","3","3","3","3","3","3","3","3","3","3","3","3","3","3","3","3","3","3","3","3","3","3","3","3","2","3","3","2","3","agree","3.899999998509884","","","","","","","","<div style=""font-size:60px;"">?</div>","76","31","1","0.8"
"image-keyboard-response","96","683468","0.0-11.0-0.31","wj1onw8mhp7x88q","1","60ff50bd87fb9ec9442e396a","21","08/2000","Single","Hindi","English","Female","Asian","No","Undergraduate degree","No, currently not in school","N/A","N/A","N/A","5","4","4","2","3","0.5","stim/N000.jpg","65","65","0.5","3","2","2","","2","2","2","2","2","2","2","2","2","2","2","2","3","3","3","3","3","3","5","3","3","3","3","3","3","3","3","3","3","5","3","3","3","3","3","3","3","3","3","3","3","3","3","3","3","3","3","3","3","3","3","3","3","3","3","3","2","3","3","2","3","agree","null","","","","","","","","stim/T180.jpg","null","","",""
"html-keyboard-response","97","683538","0.0-11.0-1.31","wj1onw8mhp7x88q","1","60ff50bd87fb9ec9442e396a","21","08/2000","Single","Hindi","English","Female","Asian","No","Undergraduate degree","No, currently not in school","N/A","N/A","N/A","5","4","4","2","3","0.5","stim/N000.jpg","65","65","0.5","3","2","2","","2","2","2","2","2","2","2","2","2","2","2","2","3","3","3","3","3","3","5","3","3","3","3","3","3","3","3","3","3","5","3","3","3","3","3","3","3","3","3","3","3","3","3","3","3","3","3","3","3","3","3","3","3","3","3","3","2","3","3","2","3","agree","68.89999999850988","","","","","","","","<div style=""font-size:60px;"">?</div>","65","32","1","0.8"
"image-keyboard-response","98","684552","0.0-11.0-0.32","wj1onw8mhp7x88q","1","60ff50bd87fb9ec9442e396a","21","08/2000","Single","Hindi","English","Female","Asian","No","Undergraduate degree","No, currently not in school","N/A","N/A","N/A","5","4","4","2","3","0.5","stim/N000.jpg","65","65","0.5","3","2","2","","2","2","2","2","2","2","2","2","2","2","2","2","3","3","3","3","3","3","5","3","3","3","3","3","3","3","3","3","3","5","3","3","3","3","3","3","3","3","3","3","3","3","3","3","3","3","3","3","3","3","3","3","3","3","3","3","2","3","3","2","3","agree","null","","","","","","","","stim/H040.jpg","null","","",""
"html-keyboard-response","99","684583","0.0-11.0-1.32","wj1onw8mhp7x88q","1","60ff50bd87fb9ec9442e396a","21","08/2000","Single","Hindi","English","Female","Asian","No","Undergraduate degree","No, currently not in school","N/A","N/A","N/A","5","4","4","2","3","0.5","stim/N000.jpg","65","65","0.5","3","2","2","","2","2","2","2","2","2","2","2","2","2","2","2","3","3","3","3","3","3","5","3","3","3","3","3","3","3","3","3","3","5","3","3","3","3","3","3","3","3","3","3","3","3","3","3","3","3","3","3","3","3","3","3","3","3","3","3","2","3","3","2","3","agree","29","","","","","","","","<div style=""font-size:60px;"">?</div>","76","33","1","0.8"
"image-keyboard-response","100","685595","0.0-11.0-0.33","wj1onw8mhp7x88q","1","60ff50bd87fb9ec9442e396a","21","08/2000","Single","Hindi","English","Female","Asian","No","Undergraduate degree","No, currently not in school","N/A","N/A","N/A","5","4","4","2","3","0.5","stim/N000.jpg","65","65","0.5","3","2","2","","2","2","2","2","2","2","2","2","2","2","2","2","3","3","3","3","3","3","5","3","3","3","3","3","3","3","3","3","3","5","3","3","3","3","3","3","3","3","3","3","3","3","3","3","3","3","3","3","3","3","3","3","3","3","3","3","2","3","3","2","3","agree","null","","","","","","","","stim/T130.jpg","null","","",""
"html-keyboard-response","101","685718","0.0-11.0-1.33","wj1onw8mhp7x88q","1","60ff50bd87fb9ec9442e396a","21","08/2000","Single","Hindi","English","Female","Asian","No","Undergraduate degree","No, currently not in school","N/A","N/A","N/A","5","4","4","2","3","0.5","stim/N000.jpg","65","65","0.5","3","2","2","","2","2","2","2","2","2","2","2","2","2","2","2","3","3","3","3","3","3","5","3","3","3","3","3","3","3","3","3","3","5","3","3","3","3","3","3","3","3","3","3","3","3","3","3","3","3","3","3","3","3","3","3","3","3","3","3","2","3","3","2","3","agree","121.89999999850988","","","","","","","","<div style=""font-size:60px;"">?</div>","65","34","1","0.8"
"image-keyboard-response","102","686731","0.0-11.0-0.34","wj1onw8mhp7x88q","1","60ff50bd87fb9ec9442e396a","21","08/2000","Single","Hindi","English","Female","Asian","No","Undergraduate degree","No, currently not in school","N/A","N/A","N/A","5","4","4","2","3","0.5","stim/N000.jpg","65","65","0.5","3","2","2","","2","2","2","2","2","2","2","2","2","2","2","2","3","3","3","3","3","3","5","3","3","3","3","3","3","3","3","3","3","5","3","3","3","3","3","3","3","3","3","3","3","3","3","3","3","3","3","3","3","3","3","3","3","3","3","3","2","3","3","2","3","agree","null","","","","","","","","stim/H160.jpg","null","","",""
"html-keyboard-response","103","687525","0.0-11.0-1.34","wj1onw8mhp7x88q","1","60ff50bd87fb9ec9442e396a","21","08/2000","Single","Hindi","English","Female","Asian","No","Undergraduate degree","No, currently not in school","N/A","N/A","N/A","5","4","4","2","3","0.5","stim/N000.jpg","65","65","0.5","3","2","2","","2","2","2","2","2","2","2","2","2","2","2","2","3","3","3","3","3","3","5","3","3","3","3","3","3","3","3","3","3","5","3","3","3","3","3","3","3","3","3","3","3","3","3","3","3","3","3","3","3","3","3","3","3","3","3","3","2","3","3","2","3","agree","791.7999999970198","","","","","","","","<div style=""font-size:60px;"">?</div>","76","35","1","0.8"
"image-keyboard-response","104","688540","0.0-11.0-0.35","wj1onw8mhp7x88q","1","60ff50bd87fb9ec9442e396a","21","08/2000","Single","Hindi","English","Female","Asian","No","Undergraduate degree","No, currently not in school","N/A","N/A","N/A","5","4","4","2","3","0.5","stim/N000.jpg","65","65","0.5","3","2","2","","2","2","2","2","2","2","2","2","2","2","2","2","3","3","3","3","3","3","5","3","3","3","3","3","3","3","3","3","3","5","3","3","3","3","3","3","3","3","3","3","3","3","3","3","3","3","3","3","3","3","3","3","3","3","3","3","2","3","3","2","3","agree","null","","","","","","","","stim/H240.jpg","null","","",""
"html-keyboard-response","105","688652","0.0-11.0-1.35","wj1onw8mhp7x88q","1","60ff50bd87fb9ec9442e396a","21","08/2000","Single","Hindi","English","Female","Asian","No","Undergraduate degree","No, currently not in school","N/A","N/A","N/A","5","4","4","2","3","0.5","stim/N000.jpg","65","65","0.5","3","2","2","","2","2","2","2","2","2","2","2","2","2","2","2","3","3","3","3","3","3","5","3","3","3","3","3","3","3","3","3","3","5","3","3","3","3","3","3","3","3","3","3","3","3","3","3","3","3","3","3","3","3","3","3","3","3","3","3","2","3","3","2","3","agree","109.89999999850988","","","","","","","","<div style=""font-size:60px;"">?</div>","76","36","1","0.8"
"image-keyboard-response","106","689664","0.0-11.0-0.36","wj1onw8mhp7x88q","1","60ff50bd87fb9ec9442e396a","21","08/2000","Single","Hindi","English","Female","Asian","No","Undergraduate degree","No, currently not in school","N/A","N/A","N/A","5","4","4","2","3","0.5","stim/N000.jpg","65","65","0.5","3","2","2","","2","2","2","2","2","2","2","2","2","2","2","2","3","3","3","3","3","3","5","3","3","3","3","3","3","3","3","3","3","5","3","3","3","3","3","3","3","3","3","3","3","3","3","3","3","3","3","3","3","3","3","3","3","3","3","3","2","3","3","2","3","agree","null","","","","","","","","stim/H300.jpg","null","","",""
"html-keyboard-response","107","689732","0.0-11.0-1.36","wj1onw8mhp7x88q","1","60ff50bd87fb9ec9442e396a","21","08/2000","Single","Hindi","English","Female","Asian","No","Undergraduate degree","No, currently not in school","N/A","N/A","N/A","5","4","4","2","3","0.5","stim/N000.jpg","65","65","0.5","3","2","2","","2","2","2","2","2","2","2","2","2","2","2","2","3","3","3","3","3","3","5","3","3","3","3","3","3","3","3","3","3","5","3","3","3","3","3","3","3","3","3","3","3","3","3","3","3","3","3","3","3","3","3","3","3","3","3","3","2","3","3","2","3","agree","67.29999999701977","","","","","","","","<div style=""font-size:60px;"">?</div>","76","37","1","0.8"
"image-keyboard-response","108","690745","0.0-11.0-0.37","wj1onw8mhp7x88q","1","60ff50bd87fb9ec9442e396a","21","08/2000","Single","Hindi","English","Female","Asian","No","Undergraduate degree","No, currently not in school","N/A","N/A","N/A","5","4","4","2","3","0.5","stim/N000.jpg","65","65","0.5","3","2","2","","2","2","2","2","2","2","2","2","2","2","2","2","3","3","3","3","3","3","5","3","3","3","3","3","3","3","3","3","3","5","3","3","3","3","3","3","3","3","3","3","3","3","3","3","3","3","3","3","3","3","3","3","3","3","3","3","2","3","3","2","3","agree","null","","","","","","","","stim/H190.jpg","null","","",""
"html-keyboard-response","109","691094","0.0-11.0-1.37","wj1onw8mhp7x88q","1","60ff50bd87fb9ec9442e396a","21","08/2000","Single","Hindi","English","Female","Asian","No","Undergraduate degree","No, currently not in school","N/A","N/A","N/A","5","4","4","2","3","0.5","stim/N000.jpg","65","65","0.5","3","2","2","","2","2","2","2","2","2","2","2","2","2","2","2","3","3","3","3","3","3","5","3","3","3","3","3","3","3","3","3","3","5","3","3","3","3","3","3","3","3","3","3","3","3","3","3","3","3","3","3","3","3","3","3","3","3","3","3","2","3","3","2","3","agree","346.8999999985099","","","","","","","","<div style=""font-size:60px;"">?</div>","76","38","1","0.8"
"image-keyboard-response","110","692101","0.0-11.0-0.38","wj1onw8mhp7x88q","1","60ff50bd87fb9ec9442e396a","21","08/2000","Single","Hindi","English","Female","Asian","No","Undergraduate degree","No, currently not in school","N/A","N/A","N/A","5","4","4","2","3","0.5","stim/N000.jpg","65","65","0.5","3","2","2","","2","2","2","2","2","2","2","2","2","2","2","2","3","3","3","3","3","3","5","3","3","3","3","3","3","3","3","3","3","5","3","3","3","3","3","3","3","3","3","3","3","3","3","3","3","3","3","3","3","3","3","3","3","3","3","3","2","3","3","2","3","agree","null","","","","","","","","stim/H250.jpg","null","","",""
"html-keyboard-response","111","692102","0.0-11.0-1.38","wj1onw8mhp7x88q","1","60ff50bd87fb9ec9442e396a","21","08/2000","Single","Hindi","English","Female","Asian","No","Undergraduate degree","No, currently not in school","N/A","N/A","N/A","5","4","4","2","3","0.5","stim/N000.jpg","65","65","0.5","3","2","2","","2","2","2","2","2","2","2","2","2","2","2","2","3","3","3","3","3","3","5","3","3","3","3","3","3","3","3","3","3","5","3","3","3","3","3","3","3","3","3","3","3","3","3","3","3","3","3","3","3","3","3","3","3","3","3","3","2","3","3","2","3","agree","0.7000000029802322","","","","","","","","<div style=""font-size:60px;"">?</div>","76","39","1","0.8"
"image-keyboard-response","112","693116","0.0-11.0-0.39","wj1onw8mhp7x88q","1","60ff50bd87fb9ec9442e396a","21","08/2000","Single","Hindi","English","Female","Asian","No","Undergraduate degree","No, currently not in school","N/A","N/A","N/A","5","4","4","2","3","0.5","stim/N000.jpg","65","65","0.5","3","2","2","","2","2","2","2","2","2","2","2","2","2","2","2","3","3","3","3","3","3","5","3","3","3","3","3","3","3","3","3","3","5","3","3","3","3","3","3","3","3","3","3","3","3","3","3","3","3","3","3","3","3","3","3","3","3","3","3","2","3","3","2","3","agree","null","","","","","","","","stim/H240.jpg","null","","",""
"html-keyboard-response","113","693653","0.0-11.0-1.39","wj1onw8mhp7x88q","1","60ff50bd87fb9ec9442e396a","21","08/2000","Single","Hindi","English","Female","Asian","No","Undergraduate degree","No, currently not in school","N/A","N/A","N/A","5","4","4","2","3","0.5","stim/N000.jpg","65","65","0.5","3","2","2","","2","2","2","2","2","2","2","2","2","2","2","2","3","3","3","3","3","3","5","3","3","3","3","3","3","3","3","3","3","5","3","3","3","3","3","3","3","3","3","3","3","3","3","3","3","3","3","3","3","3","3","3","3","3","3","3","2","3","3","2","3","agree","535.1999999955297","","","","","","","","<div style=""font-size:60px;"">?</div>","76","40","1","0.8"
"image-keyboard-response","114","694662","0.0-11.0-0.40","wj1onw8mhp7x88q","1","60ff50bd87fb9ec9442e396a","21","08/2000","Single","Hindi","English","Female","Asian","No","Undergraduate degree","No, currently not in school","N/A","N/A","N/A","5","4","4","2","3","0.5","stim/N000.jpg","65","65","0.5","3","2","2","","2","2","2","2","2","2","2","2","2","2","2","2","3","3","3","3","3","3","5","3","3","3","3","3","3","3","3","3","3","5","3","3","3","3","3","3","3","3","3","3","3","3","3","3","3","3","3","3","3","3","3","3","3","3","3","3","2","3","3","2","3","agree","null","","","","","","","","stim/T050.jpg","null","","",""
"html-keyboard-response","115","695887","0.0-11.0-1.40","wj1onw8mhp7x88q","1","60ff50bd87fb9ec9442e396a","21","08/2000","Single","Hindi","English","Female","Asian","No","Undergraduate degree","No, currently not in school","N/A","N/A","N/A","5","4","4","2","3","0.5","stim/N000.jpg","65","65","0.5","3","2","2","","2","2","2","2","2","2","2","2","2","2","2","2","3","3","3","3","3","3","5","3","3","3","3","3","3","3","3","3","3","5","3","3","3","3","3","3","3","3","3","3","3","3","3","3","3","3","3","3","3","3","3","3","3","3","3","3","2","3","3","2","3","agree","1223.1000000014901","","","","","","","","<div style=""font-size:60px;"">?</div>","76","41","1","0.8"
"image-keyboard-response","116","696897","0.0-11.0-0.41","wj1onw8mhp7x88q","1","60ff50bd87fb9ec9442e396a","21","08/2000","Single","Hindi","English","Female","Asian","No","Undergraduate degree","No, currently not in school","N/A","N/A","N/A","5","4","4","2","3","0.5","stim/N000.jpg","65","65","0.5","3","2","2","","2","2","2","2","2","2","2","2","2","2","2","2","3","3","3","3","3","3","5","3","3","3","3","3","3","3","3","3","3","5","3","3","3","3","3","3","3","3","3","3","3","3","3","3","3","3","3","3","3","3","3","3","3","3","3","3","2","3","3","2","3","agree","null","","","","","","","","stim/T180.jpg","null","","",""
"html-keyboard-response","117","697097","0.0-11.0-1.41","wj1onw8mhp7x88q","1","60ff50bd87fb9ec9442e396a","21","08/2000","Single","Hindi","English","Female","Asian","No","Undergraduate degree","No, currently not in school","N/A","N/A","N/A","5","4","4","2","3","0.5","stim/N000.jpg","65","65","0.5","3","2","2","","2","2","2","2","2","2","2","2","2","2","2","2","3","3","3","3","3","3","5","3","3","3","3","3","3","3","3","3","3","5","3","3","3","3","3","3","3","3","3","3","3","3","3","3","3","3","3","3","3","3","3","3","3","3","3","3","2","3","3","2","3","agree","198.69999999552965","","","","","","","","<div style=""font-size:60px;"">?</div>","65","42","1","0.8"
"image-keyboard-response","118","698109","0.0-11.0-0.42","wj1onw8mhp7x88q","1","60ff50bd87fb9ec9442e396a","21","08/2000","Single","Hindi","English","Female","Asian","No","Undergraduate degree","No, currently not in school","N/A","N/A","N/A","5","4","4","2","3","0.5","stim/N000.jpg","65","65","0.5","3","2","2","","2","2","2","2","2","2","2","2","2","2","2","2","3","3","3","3","3","3","5","3","3","3","3","3","3","3","3","3","3","5","3","3","3","3","3","3","3","3","3","3","3","3","3","3","3","3","3","3","3","3","3","3","3","3","3","3","2","3","3","2","3","agree","null","","","","","","","","stim/H110.jpg","null","","",""
"html-keyboard-response","119","698218","0.0-11.0-1.42","wj1onw8mhp7x88q","1","60ff50bd87fb9ec9442e396a","21","08/2000","Single","Hindi","English","Female","Asian","No","Undergraduate degree","No, currently not in school","N/A","N/A","N/A","5","4","4","2","3","0.5","stim/N000.jpg","65","65","0.5","3","2","2","","2","2","2","2","2","2","2","2","2","2","2","2","3","3","3","3","3","3","5","3","3","3","3","3","3","3","3","3","3","5","3","3","3","3","3","3","3","3","3","3","3","3","3","3","3","3","3","3","3","3","3","3","3","3","3","3","2","3","3","2","3","agree","106.69999999552965","","","","","","","","<div style=""font-size:60px;"">?</div>","76","43","1","0.8"
"image-keyboard-response","120","699224","0.0-11.0-0.43","wj1onw8mhp7x88q","1","60ff50bd87fb9ec9442e396a","21","08/2000","Single","Hindi","English","Female","Asian","No","Undergraduate degree","No, currently not in school","N/A","N/A","N/A","5","4","4","2","3","0.5","stim/N000.jpg","65","65","0.5","3","2","2","","2","2","2","2","2","2","2","2","2","2","2","2","3","3","3","3","3","3","5","3","3","3","3","3","3","3","3","3","3","5","3","3","3","3","3","3","3","3","3","3","3","3","3","3","3","3","3","3","3","3","3","3","3","3","3","3","2","3","3","2","3","agree","null","","","","","","","","stim/H140.jpg","null","","",""
"html-keyboard-response","121","699293","0.0-11.0-1.43","wj1onw8mhp7x88q","1","60ff50bd87fb9ec9442e396a","21","08/2000","Single","Hindi","English","Female","Asian","No","Undergraduate degree","No, currently not in school","N/A","N/A","N/A","5","4","4","2","3","0.5","stim/N000.jpg","65","65","0.5","3","2","2","","2","2","2","2","2","2","2","2","2","2","2","2","3","3","3","3","3","3","5","3","3","3","3","3","3","3","3","3","3","5","3","3","3","3","3","3","3","3","3","3","3","3","3","3","3","3","3","3","3","3","3","3","3","3","3","3","2","3","3","2","3","agree","67.60000000149012","","","","","","","","<div style=""font-size:60px;"">?</div>","76","44","1","0.8"
"image-keyboard-response","122","700309","0.0-11.0-0.44","wj1onw8mhp7x88q","1","60ff50bd87fb9ec9442e396a","21","08/2000","Single","Hindi","English","Female","Asian","No","Undergraduate degree","No, currently not in school","N/A","N/A","N/A","5","4","4","2","3","0.5","stim/N000.jpg","65","65","0.5","3","2","2","","2","2","2","2","2","2","2","2","2","2","2","2","3","3","3","3","3","3","5","3","3","3","3","3","3","3","3","3","3","5","3","3","3","3","3","3","3","3","3","3","3","3","3","3","3","3","3","3","3","3","3","3","3","3","3","3","2","3","3","2","3","agree","null","","","","","","","","stim/H150.jpg","null","","",""
"html-keyboard-response","123","701207","0.0-11.0-1.44","wj1onw8mhp7x88q","1","60ff50bd87fb9ec9442e396a","21","08/2000","Single","Hindi","English","Female","Asian","No","Undergraduate degree","No, currently not in school","N/A","N/A","N/A","5","4","4","2","3","0.5","stim/N000.jpg","65","65","0.5","3","2","2","","2","2","2","2","2","2","2","2","2","2","2","2","3","3","3","3","3","3","5","3","3","3","3","3","3","3","3","3","3","5","3","3","3","3","3","3","3","3","3","3","3","3","3","3","3","3","3","3","3","3","3","3","3","3","3","3","2","3","3","2","3","agree","896.5","","","","","","","","<div style=""font-size:60px;"">?</div>","76","45","1","0.8"
"image-keyboard-response","124","702220","0.0-11.0-0.45","wj1onw8mhp7x88q","1","60ff50bd87fb9ec9442e396a","21","08/2000","Single","Hindi","English","Female","Asian","No","Undergraduate degree","No, currently not in school","N/A","N/A","N/A","5","4","4","2","3","0.5","stim/N000.jpg","65","65","0.5","3","2","2","","2","2","2","2","2","2","2","2","2","2","2","2","3","3","3","3","3","3","5","3","3","3","3","3","3","3","3","3","3","5","3","3","3","3","3","3","3","3","3","3","3","3","3","3","3","3","3","3","3","3","3","3","3","3","3","3","2","3","3","2","3","agree","null","","","","","","","","stim/H090.jpg","null","","",""
"html-keyboard-response","125","702594","0.0-11.0-1.45","wj1onw8mhp7x88q","1","60ff50bd87fb9ec9442e396a","21","08/2000","Single","Hindi","English","Female","Asian","No","Undergraduate degree","No, currently not in school","N/A","N/A","N/A","5","4","4","2","3","0.5","stim/N000.jpg","65","65","0.5","3","2","2","","2","2","2","2","2","2","2","2","2","2","2","2","3","3","3","3","3","3","5","3","3","3","3","3","3","3","3","3","3","5","3","3","3","3","3","3","3","3","3","3","3","3","3","3","3","3","3","3","3","3","3","3","3","3","3","3","2","3","3","2","3","agree","371.6000000014901","","","","","","","","<div style=""font-size:60px;"">?</div>","76","46","1","0.8"
"image-keyboard-response","126","703600","0.0-11.0-0.46","wj1onw8mhp7x88q","1","60ff50bd87fb9ec9442e396a","21","08/2000","Single","Hindi","English","Female","Asian","No","Undergraduate degree","No, currently not in school","N/A","N/A","N/A","5","4","4","2","3","0.5","stim/N000.jpg","65","65","0.5","3","2","2","","2","2","2","2","2","2","2","2","2","2","2","2","3","3","3","3","3","3","5","3","3","3","3","3","3","3","3","3","3","5","3","3","3","3","3","3","3","3","3","3","3","3","3","3","3","3","3","3","3","3","3","3","3","3","3","3","2","3","3","2","3","agree","null","","","","","","","","stim/H080.jpg","null","","",""
"html-keyboard-response","127","703746","0.0-11.0-1.46","wj1onw8mhp7x88q","1","60ff50bd87fb9ec9442e396a","21","08/2000","Single","Hindi","English","Female","Asian","No","Undergraduate degree","No, currently not in school","N/A","N/A","N/A","5","4","4","2","3","0.5","stim/N000.jpg","65","65","0.5","3","2","2","","2","2","2","2","2","2","2","2","2","2","2","2","3","3","3","3","3","3","5","3","3","3","3","3","3","3","3","3","3","5","3","3","3","3","3","3","3","3","3","3","3","3","3","3","3","3","3","3","3","3","3","3","3","3","3","3","2","3","3","2","3","agree","144.70000000298023","","","","","","","","<div style=""font-size:60px;"">?</div>","76","47","1","0.8"
"image-keyboard-response","128","704758","0.0-11.0-0.47","wj1onw8mhp7x88q","1","60ff50bd87fb9ec9442e396a","21","08/2000","Single","Hindi","English","Female","Asian","No","Undergraduate degree","No, currently not in school","N/A","N/A","N/A","5","4","4","2","3","0.5","stim/N000.jpg","65","65","0.5","3","2","2","","2","2","2","2","2","2","2","2","2","2","2","2","3","3","3","3","3","3","5","3","3","3","3","3","3","3","3","3","3","5","3","3","3","3","3","3","3","3","3","3","3","3","3","3","3","3","3","3","3","3","3","3","3","3","3","3","2","3","3","2","3","agree","null","","","","","","","","stim/H070.jpg","null","","",""
"html-keyboard-response","129","704849","0.0-11.0-1.47","wj1onw8mhp7x88q","1","60ff50bd87fb9ec9442e396a","21","08/2000","Single","Hindi","English","Female","Asian","No","Undergraduate degree","No, currently not in school","N/A","N/A","N/A","5","4","4","2","3","0.5","stim/N000.jpg","65","65","0.5","3","2","2","","2","2","2","2","2","2","2","2","2","2","2","2","3","3","3","3","3","3","5","3","3","3","3","3","3","3","3","3","3","5","3","3","3","3","3","3","3","3","3","3","3","3","3","3","3","3","3","3","3","3","3","3","3","3","3","3","2","3","3","2","3","agree","89","","","","","","","","<div style=""font-size:60px;"">?</div>","76","48","1","0.8"
"image-keyboard-response","130","705863","0.0-11.0-0.48","wj1onw8mhp7x88q","1","60ff50bd87fb9ec9442e396a","21","08/2000","Single","Hindi","English","Female","Asian","No","Undergraduate degree","No, currently not in school","N/A","N/A","N/A","5","4","4","2","3","0.5","stim/N000.jpg","65","65","0.5","3","2","2","","2","2","2","2","2","2","2","2","2","2","2","2","3","3","3","3","3","3","5","3","3","3","3","3","3","3","3","3","3","5","3","3","3","3","3","3","3","3","3","3","3","3","3","3","3","3","3","3","3","3","3","3","3","3","3","3","2","3","3","2","3","agree","null","","","","","","","","stim/H030.jpg","null","","",""
"html-keyboard-response","131","706425","0.0-11.0-1.48","wj1onw8mhp7x88q","1","60ff50bd87fb9ec9442e396a","21","08/2000","Single","Hindi","English","Female","Asian","No","Undergraduate degree","No, currently not in school","N/A","N/A","N/A","5","4","4","2","3","0.5","stim/N000.jpg","65","65","0.5","3","2","2","","2","2","2","2","2","2","2","2","2","2","2","2","3","3","3","3","3","3","5","3","3","3","3","3","3","3","3","3","3","5","3","3","3","3","3","3","3","3","3","3","3","3","3","3","3","3","3","3","3","3","3","3","3","3","3","3","2","3","3","2","3","agree","560.5999999940395","","","","","","","","<div style=""font-size:60px;"">?</div>","76","49","1","0.8"
"image-keyboard-response","132","707434","0.0-11.0-0.49","wj1onw8mhp7x88q","1","60ff50bd87fb9ec9442e396a","21","08/2000","Single","Hindi","English","Female","Asian","No","Undergraduate degree","No, currently not in school","N/A","N/A","N/A","5","4","4","2","3","0.5","stim/N000.jpg","65","65","0.5","3","2","2","","2","2","2","2","2","2","2","2","2","2","2","2","3","3","3","3","3","3","5","3","3","3","3","3","3","3","3","3","3","5","3","3","3","3","3","3","3","3","3","3","3","3","3","3","3","3","3","3","3","3","3","3","3","3","3","3","2","3","3","2","3","agree","null","","","","","","","","stim/H220.jpg","null","","",""
"html-keyboard-response","133","707554","0.0-11.0-1.49","wj1onw8mhp7x88q","1","60ff50bd87fb9ec9442e396a","21","08/2000","Single","Hindi","English","Female","Asian","No","Undergraduate degree","No, currently not in school","N/A","N/A","N/A","5","4","4","2","3","0.5","stim/N000.jpg","65","65","0.5","3","2","2","","2","2","2","2","2","2","2","2","2","2","2","2","3","3","3","3","3","3","5","3","3","3","3","3","3","3","3","3","3","5","3","3","3","3","3","3","3","3","3","3","3","3","3","3","3","3","3","3","3","3","3","3","3","3","3","3","2","3","3","2","3","agree","118.30000000447035","","","","","","","","<div style=""font-size:60px;"">?</div>","76","50","1","0.8"
"html-keyboard-response","134","709116","0.0-12.0","wj1onw8mhp7x88q","1","60ff50bd87fb9ec9442e396a","21","08/2000","Single","Hindi","English","Female","Asian","No","Undergraduate degree","No, currently not in school","N/A","N/A","N/A","5","4","4","2","3","0.5","stim/N000.jpg","65","65","0.5","3","2","2","","2","2","2","2","2","2","2","2","2","2","2","2","3","3","3","3","3","3","5","3","3","3","3","3","3","3","3","3","3","5","3","3","3","3","3","3","3","3","3","3","3","3","3","3","3","3","3","3","3","3","3","3","3","3","3","3","2","3","3","2","3","agree","1054.3999999985099","","","","","","","","<p>Block 2</p><p>Press SPACE to continue.</p>","32","","",""
"image-keyboard-response","135","710621","0.0-13.0-0.0","wj1onw8mhp7x88q","1","60ff50bd87fb9ec9442e396a","21","08/2000","Single","Hindi","English","Female","Asian","No","Undergraduate degree","No, currently not in school","N/A","N/A","N/A","5","4","4","2","3","0.5","stim/N000.jpg","65","65","0.5","3","2","2","","2","2","2","2","2","2","2","2","2","2","2","2","3","3","3","3","3","3","5","3","3","3","3","3","3","3","3","3","3","5","3","3","3","3","3","3","3","3","3","3","3","3","3","3","3","3","3","3","3","3","3","3","3","3","3","3","2","3","3","2","3","agree","null","","","","","","","","stim/H020.jpg","null","","",""
"html-keyboard-response","136","711363","0.0-13.0-1.0","wj1onw8mhp7x88q","1","60ff50bd87fb9ec9442e396a","21","08/2000","Single","Hindi","English","Female","Asian","No","Undergraduate degree","No, currently not in school","N/A","N/A","N/A","5","4","4","2","3","0.5","stim/N000.jpg","65","65","0.5","3","2","2","","2","2","2","2","2","2","2","2","2","2","2","2","3","3","3","3","3","3","5","3","3","3","3","3","3","3","3","3","3","5","3","3","3","3","3","3","3","3","3","3","3","3","3","3","3","3","3","3","3","3","3","3","3","3","3","3","2","3","3","2","3","agree","739.3999999985099","","","","","","","","<div style=""font-size:60px;"">?</div>","76","1","2","0.8"
"image-keyboard-response","137","712368","0.0-13.0-0.1","wj1onw8mhp7x88q","1","60ff50bd87fb9ec9442e396a","21","08/2000","Single","Hindi","English","Female","Asian","No","Undergraduate degree","No, currently not in school","N/A","N/A","N/A","5","4","4","2","3","0.5","stim/N000.jpg","65","65","0.5","3","2","2","","2","2","2","2","2","2","2","2","2","2","2","2","3","3","3","3","3","3","5","3","3","3","3","3","3","3","3","3","3","5","3","3","3","3","3","3","3","3","3","3","3","3","3","3","3","3","3","3","3","3","3","3","3","3","3","3","2","3","3","2","3","agree","null","","","","","","","","stim/H100.jpg","null","","",""
"html-keyboard-response","138","712427","0.0-13.0-1.1","wj1onw8mhp7x88q","1","60ff50bd87fb9ec9442e396a","21","08/2000","Single","Hindi","English","Female","Asian","No","Undergraduate degree","No, currently not in school","N/A","N/A","N/A","5","4","4","2","3","0.5","stim/N000.jpg","65","65","0.5","3","2","2","","2","2","2","2","2","2","2","2","2","2","2","2","3","3","3","3","3","3","5","3","3","3","3","3","3","3","3","3","3","5","3","3","3","3","3","3","3","3","3","3","3","3","3","3","3","3","3","3","3","3","3","3","3","3","3","3","2","3","3","2","3","agree","57","","","","","","","","<div style=""font-size:60px;"">?</div>","76","2","2","0.8"
"image-keyboard-response","139","713438","0.0-13.0-0.2","wj1onw8mhp7x88q","1","60ff50bd87fb9ec9442e396a","21","08/2000","Single","Hindi","English","Female","Asian","No","Undergraduate degree","No, currently not in school","N/A","N/A","N/A","5","4","4","2","3","0.5","stim/N000.jpg","65","65","0.5","3","2","2","","2","2","2","2","2","2","2","2","2","2","2","2","3","3","3","3","3","3","5","3","3","3","3","3","3","3","3","3","3","5","3","3","3","3","3","3","3","3","3","3","3","3","3","3","3","3","3","3","3","3","3","3","3","3","3","3","2","3","3","2","3","agree","null","","","","","","","","stim/H140.jpg","null","","",""
"html-keyboard-response","140","713503","0.0-13.0-1.2","wj1onw8mhp7x88q","1","60ff50bd87fb9ec9442e396a","21","08/2000","Single","Hindi","English","Female","Asian","No","Undergraduate degree","No, currently not in school","N/A","N/A","N/A","5","4","4","2","3","0.5","stim/N000.jpg","65","65","0.5","3","2","2","","2","2","2","2","2","2","2","2","2","2","2","2","3","3","3","3","3","3","5","3","3","3","3","3","3","3","3","3","3","5","3","3","3","3","3","3","3","3","3","3","3","3","3","3","3","3","3","3","3","3","3","3","3","3","3","3","2","3","3","2","3","agree","63.5","","","","","","","","<div style=""font-size:60px;"">?</div>","76","3","2","0.8"
"image-keyboard-response","141","714512","0.0-13.0-0.3","wj1onw8mhp7x88q","1","60ff50bd87fb9ec9442e396a","21","08/2000","Single","Hindi","English","Female","Asian","No","Undergraduate degree","No, currently not in school","N/A","N/A","N/A","5","4","4","2","3","0.5","stim/N000.jpg","65","65","0.5","3","2","2","","2","2","2","2","2","2","2","2","2","2","2","2","3","3","3","3","3","3","5","3","3","3","3","3","3","3","3","3","3","5","3","3","3","3","3","3","3","3","3","3","3","3","3","3","3","3","3","3","3","3","3","3","3","3","3","3","2","3","3","2","3","agree","null","","","","","","","","stim/T040.jpg","null","","",""
"html-keyboard-response","142","715710","0.0-13.0-1.3","wj1onw8mhp7x88q","1","60ff50bd87fb9ec9442e396a","21","08/2000","Single","Hindi","English","Female","Asian","No","Undergraduate degree","No, currently not in school","N/A","N/A","N/A","5","4","4","2","3","0.5","stim/N000.jpg","65","65","0.5","3","2","2","","2","2","2","2","2","2","2","2","2","2","2","2","3","3","3","3","3","3","5","3","3","3","3","3","3","3","3","3","3","5","3","3","3","3","3","3","3","3","3","3","3","3","3","3","3","3","3","3","3","3","3","3","3","3","3","3","2","3","3","2","3","agree","1196.6999999955297","","","","","","","","<div style=""font-size:60px;"">?</div>","76","4","2","0.8"
"image-keyboard-response","143","716721","0.0-13.0-0.4","wj1onw8mhp7x88q","1","60ff50bd87fb9ec9442e396a","21","08/2000","Single","Hindi","English","Female","Asian","No","Undergraduate degree","No, currently not in school","N/A","N/A","N/A","5","4","4","2","3","0.5","stim/N000.jpg","65","65","0.5","3","2","2","","2","2","2","2","2","2","2","2","2","2","2","2","3","3","3","3","3","3","5","3","3","3","3","3","3","3","3","3","3","5","3","3","3","3","3","3","3","3","3","3","3","3","3","3","3","3","3","3","3","3","3","3","3","3","3","3","2","3","3","2","3","agree","null","","","","","","","","stim/H190.jpg","null","","",""
"html-keyboard-response","144","716855","0.0-13.0-1.4","wj1onw8mhp7x88q","1","60ff50bd87fb9ec9442e396a","21","08/2000","Single","Hindi","English","Female","Asian","No","Undergraduate degree","No, currently not in school","N/A","N/A","N/A","5","4","4","2","3","0.5","stim/N000.jpg","65","65","0.5","3","2","2","","2","2","2","2","2","2","2","2","2","2","2","2","3","3","3","3","3","3","5","3","3","3","3","3","3","3","3","3","3","5","3","3","3","3","3","3","3","3","3","3","3","3","3","3","3","3","3","3","3","3","3","3","3","3","3","3","2","3","3","2","3","agree","132.20000000298023","","","","","","","","<div style=""font-size:60px;"">?</div>","76","5","2","0.8"
"image-keyboard-response","145","717866","0.0-13.0-0.5","wj1onw8mhp7x88q","1","60ff50bd87fb9ec9442e396a","21","08/2000","Single","Hindi","English","Female","Asian","No","Undergraduate degree","No, currently not in school","N/A","N/A","N/A","5","4","4","2","3","0.5","stim/N000.jpg","65","65","0.5","3","2","2","","2","2","2","2","2","2","2","2","2","2","2","2","3","3","3","3","3","3","5","3","3","3","3","3","3","3","3","3","3","5","3","3","3","3","3","3","3","3","3","3","3","3","3","3","3","3","3","3","3","3","3","3","3","3","3","3","2","3","3","2","3","agree","null","","","","","","","","stim/H290.jpg","null","","",""
"html-keyboard-response","146","718128","0.0-13.0-1.5","wj1onw8mhp7x88q","1","60ff50bd87fb9ec9442e396a","21","08/2000","Single","Hindi","English","Female","Asian","No","Undergraduate degree","No, currently not in school","N/A","N/A","N/A","5","4","4","2","3","0.5","stim/N000.jpg","65","65","0.5","3","2","2","","2","2","2","2","2","2","2","2","2","2","2","2","3","3","3","3","3","3","5","3","3","3","3","3","3","3","3","3","3","5","3","3","3","3","3","3","3","3","3","3","3","3","3","3","3","3","3","3","3","3","3","3","3","3","3","3","2","3","3","2","3","agree","260","","","","","","","","<div style=""font-size:60px;"">?</div>","76","6","2","0.8"
"image-keyboard-response","147","719142","0.0-13.0-0.6","wj1onw8mhp7x88q","1","60ff50bd87fb9ec9442e396a","21","08/2000","Single","Hindi","English","Female","Asian","No","Undergraduate degree","No, currently not in school","N/A","N/A","N/A","5","4","4","2","3","0.5","stim/N000.jpg","65","65","0.5","3","2","2","","2","2","2","2","2","2","2","2","2","2","2","2","3","3","3","3","3","3","5","3","3","3","3","3","3","3","3","3","3","5","3","3","3","3","3","3","3","3","3","3","3","3","3","3","3","3","3","3","3","3","3","3","3","3","3","3","2","3","3","2","3","agree","null","","","","","","","","stim/H250.jpg","null","","",""
"html-keyboard-response","148","719591","0.0-13.0-1.6","wj1onw8mhp7x88q","1","60ff50bd87fb9ec9442e396a","21","08/2000","Single","Hindi","English","Female","Asian","No","Undergraduate degree","No, currently not in school","N/A","N/A","N/A","5","4","4","2","3","0.5","stim/N000.jpg","65","65","0.5","3","2","2","","2","2","2","2","2","2","2","2","2","2","2","2","3","3","3","3","3","3","5","3","3","3","3","3","3","3","3","3","3","5","3","3","3","3","3","3","3","3","3","3","3","3","3","3","3","3","3","3","3","3","3","3","3","3","3","3","2","3","3","2","3","agree","445.3999999985099","","","","","","","","<div style=""font-size:60px;"">?</div>","76","7","2","0.8"
"image-keyboard-response","149","720606","0.0-13.0-0.7","wj1onw8mhp7x88q","1","60ff50bd87fb9ec9442e396a","21","08/2000","Single","Hindi","English","Female","Asian","No","Undergraduate degree","No, currently not in school","N/A","N/A","N/A","5","4","4","2","3","0.5","stim/N000.jpg","65","65","0.5","3","2","2","","2","2","2","2","2","2","2","2","2","2","2","2","3","3","3","3","3","3","5","3","3","3","3","3","3","3","3","3","3","5","3","3","3","3","3","3","3","3","3","3","3","3","3","3","3","3","3","3","3","3","3","3","3","3","3","3","2","3","3","2","3","agree","null","","","","","","","","stim/H280.jpg","null","","",""
"html-keyboard-response","150","720684","0.0-13.0-1.7","wj1onw8mhp7x88q","1","60ff50bd87fb9ec9442e396a","21","08/2000","Single","Hindi","English","Female","Asian","No","Undergraduate degree","No, currently not in school","N/A","N/A","N/A","5","4","4","2","3","0.5","stim/N000.jpg","65","65","0.5","3","2","2","","2","2","2","2","2","2","2","2","2","2","2","2","3","3","3","3","3","3","5","3","3","3","3","3","3","3","3","3","3","5","3","3","3","3","3","3","3","3","3","3","3","3","3","3","3","3","3","3","3","3","3","3","3","3","3","3","2","3","3","2","3","agree","76.59999999403954","","","","","","","","<div style=""font-size:60px;"">?</div>","76","8","2","0.8"
