"trial_type","trial_index","time_elapsed","internal_node_id","subject","condition","ID","age","dob","marital","natlang","olang","gender","ethnicity","mental_check","educ_l","educ_c","mental","mentdrug","mentpos","sesparent","sesstudent","sesladder","educ_hs","educ_ce","s1self","chosenbody","s1selfjudge","s2selfjudge","s2self","sspc_01","sspc_02","pas_01","pas_02","pas_03","pas_04","pas_05","pas_06","pas_07","pas_08","pas_09","pas_10","pas_11","pas_12","pas_13","pas_14","contact_01","contact_02","contact_03","contact_04","contact_05","contact_06","contact_07","contact_08","contact_09","idnd_01","idnd_02","idnd_03","idnd_04","idnd_05","idnd_06","idnd_07","idnd_08","catch_01","adig_01","adig_02","adig_03","plcs_01","plcs_02","plcs_03","plcs_04","plcs_05","plcs_06","plcs_07","plcs_08","plcs_09","plcs_10","plcs_11","plcs_12","catch_02","wwwp_01","wwwp_02","wwwp_03","wwwp_04","wwwp_05","wwwp_06","wwwp_07","wwwp_08","wwwp_09","lsns_fam_1","lsns_fam_2","lsns_fam_3","lsns_fri_1","lsns_fri_2","lsns_fri_3","debrief","rt","url","success","view_history","responses","question_order","final_value","start_value","stimulus","key_press","trial","block","freq"
"pavlovia","0","4","0.0-0.0","lxdk9vhv980v97p","1","60cb78a6d16b4828beb5cbb7","23","07/1998","Single","English","none","Male","White or Caucasian","No","High School","Yes, Undergraduate studies","N/A","n/A","N/A","4","0","3","1","4","0.516666666","stim/H010.jpg","76","76","0.5","3","1","3","","3","3","2","2","2","2","3","4","0","3","0","3","1","4","1","4","4","1","2","0","0","4","1","3","5","4","1","3","4","5","1","1","4","1","3","3","3","3","2","3","3","3","3","3","3","1","5","4","4","4","3","4","5","5","4","3","1","0","3","3","2","agree","","","","","","","","","","","","",""
"external-html","1","16060","0.0-1.0","lxdk9vhv980v97p","1","60cb78a6d16b4828beb5cbb7","23","07/1998","Single","English","none","Male","White or Caucasian","No","High School","Yes, Undergraduate studies","N/A","n/A","N/A","4","0","3","1","4","0.516666666","stim/H010.jpg","76","76","0.5","3","1","3","","3","3","2","2","2","2","3","4","0","3","0","3","1","4","1","4","4","1","2","0","0","4","1","3","5","4","1","3","4","5","1","1","4","1","3","3","3","3","2","3","3","3","3","3","3","1","5","4","4","4","3","4","5","5","4","3","1","0","3","3","2","agree","15868","sub/html/consent.html","","","","","","","","","","",""
"fullscreen","2","21050","0.0-2.0","lxdk9vhv980v97p","1","60cb78a6d16b4828beb5cbb7","23","07/1998","Single","English","none","Male","White or Caucasian","No","High School","Yes, Undergraduate studies","N/A","n/A","N/A","4","0","3","1","4","0.516666666","stim/H010.jpg","76","76","0.5","3","1","3","","3","3","2","2","2","2","3","4","0","3","0","3","1","4","1","4","4","1","2","0","0","4","1","3","5","4","1","3","4","5","1","1","4","1","3","3","3","3","2","3","3","3","3","3","3","1","5","4","4","4","3","4","5","5","4","3","1","0","3","3","2","agree","","","true","","","","","","","","","",""
"instructions","3","31890","0.0-3.0","lxdk9vhv980v97p","1","60cb78a6d16b4828beb5cbb7","23","07/1998","Single","English","none","Male","White or Caucasian","No","High School","Yes, Undergraduate studies","N/A","n/A","N/A","4","0","3","1","4","0.516666666","stim/H010.jpg","76","76","0.5","3","1","3","","3","3","2","2","2","2","3","4","0","3","0","3","1","4","1","4","4","1","2","0","0","4","1","3","5","4","1","3","4","5","1","1","4","1","3","3","3","3","2","3","3","3","3","3","3","1","5","4","4","4","3","4","5","5","4","3","1","0","3","3","2","agree","10840.099999999627","","","[{""page_index"":0,""viewing_time"":4091.5999999996275},{""page_index"":1,""viewing_time"":6747.800000000745}]","","","","","","","","",""
"survey-text","4","163664","0.0-4.0-0.0","lxdk9vhv980v97p","1","60cb78a6d16b4828beb5cbb7","23","07/1998","Single","English","none","Male","White or Caucasian","No","High School","Yes, Undergraduate studies","N/A","n/A","N/A","4","0","3","1","4","0.516666666","stim/H010.jpg","76","76","0.5","3","1","3","","3","3","2","2","2","2","3","4","0","3","0","3","1","4","1","4","4","1","2","0","0","4","1","3","5","4","1","3","4","5","1","1","4","1","3","3","3","3","2","3","3","3","3","3","3","1","5","4","4","4","3","4","5","5","4","3","1","0","3","3","2","agree","131750.29999999888","","","","{""ID"":""60cb78a6d16b4828beb5cbb7"",""age"":""23"",""dob"":""07/1998"",""marital"":""Single"",""natlang"":""English"",""olang"":""none""}","","","","","","","",""
"survey-multi-choice","5","216956","0.0-4.0-1.0","lxdk9vhv980v97p","1","60cb78a6d16b4828beb5cbb7","23","07/1998","Single","English","none","Male","White or Caucasian","No","High School","Yes, Undergraduate studies","N/A","n/A","N/A","4","0","3","1","4","0.516666666","stim/H010.jpg","76","76","0.5","3","1","3","","3","3","2","2","2","2","3","4","0","3","0","3","1","4","1","4","4","1","2","0","0","4","1","3","5","4","1","3","4","5","1","1","4","1","3","3","3","3","2","3","3","3","3","3","3","1","5","4","4","4","3","4","5","5","4","3","1","0","3","3","2","agree","53288.40000000037","","","","{""gender"":""Male"",""ethnicity"":""White or Caucasian"",""mental_check"":""No"",""educ_l"":""High School"",""educ_c"":""Yes, Undergraduate studies""}","[0,1,2,3,4]","","","","","","",""
"survey-text","6","233199","0.0-4.0-2.0","lxdk9vhv980v97p","1","60cb78a6d16b4828beb5cbb7","23","07/1998","Single","English","none","Male","White or Caucasian","No","High School","Yes, Undergraduate studies","N/A","n/A","N/A","4","0","3","1","4","0.516666666","stim/H010.jpg","76","76","0.5","3","1","3","","3","3","2","2","2","2","3","4","0","3","0","3","1","4","1","4","4","1","2","0","0","4","1","3","5","4","1","3","4","5","1","1","4","1","3","3","3","3","2","3","3","3","3","3","3","1","5","4","4","4","3","4","5","5","4","3","1","0","3","3","2","agree","16224","","","","{""mental"":""N/A"",""mentdrug"":""n/A"",""mentpos"":""N/A""}","","","","","","","",""
"survey-likert","7","267695","0.0-4.0-3.0","lxdk9vhv980v97p","1","60cb78a6d16b4828beb5cbb7","23","07/1998","Single","English","none","Male","White or Caucasian","No","High School","Yes, Undergraduate studies","N/A","n/A","N/A","4","0","3","1","4","0.516666666","stim/H010.jpg","76","76","0.5","3","1","3","","3","3","2","2","2","2","3","4","0","3","0","3","1","4","1","4","4","1","2","0","0","4","1","3","5","4","1","3","4","5","1","1","4","1","3","3","3","3","2","3","3","3","3","3","3","1","5","4","4","4","3","4","5","5","4","3","1","0","3","3","2","agree","34493.09999999963","","","","{""sesparent"":4,""sesstudent"":0,""sesladder"":3}","[0,1,2]","","","","","","",""
"survey-likert","8","294342","0.0-4.0-4.0","lxdk9vhv980v97p","1","60cb78a6d16b4828beb5cbb7","23","07/1998","Single","English","none","Male","White or Caucasian","No","High School","Yes, Undergraduate studies","N/A","n/A","N/A","4","0","3","1","4","0.516666666","stim/H010.jpg","76","76","0.5","3","1","3","","3","3","2","2","2","2","3","4","0","3","0","3","1","4","1","4","4","1","2","0","0","4","1","3","5","4","1","3","4","5","1","1","4","1","3","3","3","3","2","3","3","3","3","3","3","1","5","4","4","4","3","4","5","5","4","3","1","0","3","3","2","agree","26635","","","","{""educ_hs"":3,""educ_ce"":6}","[0,1]","","","","","","",""
"reconstruction","9","309614","0.0-5.0","lxdk9vhv980v97p","1","60cb78a6d16b4828beb5cbb7","23","07/1998","Single","English","none","Male","White or Caucasian","No","High School","Yes, Undergraduate studies","N/A","n/A","N/A","4","0","3","1","4","0.516666666","stim/H010.jpg","76","76","0.5","3","1","3","","3","3","2","2","2","2","3","4","0","3","0","3","1","4","1","4","4","1","2","0","0","4","1","3","5","4","1","3","4","5","1","1","4","1","3","3","3","3","2","3","3","3","3","3","3","1","5","4","4","4","3","4","5","5","4","3","1","0","3","3","2","agree","15260.700000001118","","","","","","0.516666666","0.5","","","","",""
"image-keyboard-response","10","327101","0.0-6.0","lxdk9vhv980v97p","1","60cb78a6d16b4828beb5cbb7","23","07/1998","Single","English","none","Male","White or Caucasian","No","High School","Yes, Undergraduate studies","N/A","n/A","N/A","4","0","3","1","4","0.516666666","stim/H010.jpg","76","76","0.5","3","1","3","","3","3","2","2","2","2","3","4","0","3","0","3","1","4","1","4","4","1","2","0","0","4","1","3","5","4","1","3","4","5","1","1","4","1","3","3","3","3","2","3","3","3","3","3","3","1","5","4","4","4","3","4","5","5","4","3","1","0","3","3","2","agree","17484.900000000373","","","","","","","","stim/H010.jpg","76","","",""
"instructions","11","377188","0.0-7.0","lxdk9vhv980v97p","1","60cb78a6d16b4828beb5cbb7","23","07/1998","Single","English","none","Male","White or Caucasian","No","High School","Yes, Undergraduate studies","N/A","n/A","N/A","4","0","3","1","4","0.516666666","stim/H010.jpg","76","76","0.5","3","1","3","","3","3","2","2","2","2","3","4","0","3","0","3","1","4","1","4","4","1","2","0","0","4","1","3","5","4","1","3","4","5","1","1","4","1","3","3","3","3","2","3","3","3","3","3","3","1","5","4","4","4","3","4","5","5","4","3","1","0","3","3","2","agree","50085.800000000745","","","[{""page_index"":0,""viewing_time"":2363.5999999996275},{""page_index"":1,""viewing_time"":7292.300000000745},{""page_index"":2,""viewing_time"":13917},{""page_index"":3,""viewing_time"":6110.699999999255},{""page_index"":4,""viewing_time"":7302.0999999996275},{""page_index"":5,""viewing_time"":11025.800000000745},{""page_index"":6,""viewing_time"":2074}]","","","","","","","","",""
"image-keyboard-response","12","377698","0.0-8.0-0.0","lxdk9vhv980v97p","1","60cb78a6d16b4828beb5cbb7","23","07/1998","Single","English","none","Male","White or Caucasian","No","High School","Yes, Undergraduate studies","N/A","n/A","N/A","4","0","3","1","4","0.516666666","stim/H010.jpg","76","76","0.5","3","1","3","","3","3","2","2","2","2","3","4","0","3","0","3","1","4","1","4","4","1","2","0","0","4","1","3","5","4","1","3","4","5","1","1","4","1","3","3","3","3","2","3","3","3","3","3","3","1","5","4","4","4","3","4","5","5","4","3","1","0","3","3","2","agree","null","","","","","","","","stim/T250.jpg","null","","",""
"html-keyboard-response","13","379116","0.0-8.0-1.0","lxdk9vhv980v97p","1","60cb78a6d16b4828beb5cbb7","23","07/1998","Single","English","none","Male","White or Caucasian","No","High School","Yes, Undergraduate studies","N/A","n/A","N/A","4","0","3","1","4","0.516666666","stim/H010.jpg","76","76","0.5","3","1","3","","3","3","2","2","2","2","3","4","0","3","0","3","1","4","1","4","4","1","2","0","0","4","1","3","5","4","1","3","4","5","1","1","4","1","3","3","3","3","2","3","3","3","3","3","3","1","5","4","4","4","3","4","5","5","4","3","1","0","3","3","2","agree","1417.4000000003725","","","","","","","","<div style=""font-size:60px;"">?</div>","65","1","Practice","0.5"
"image-keyboard-response","14","380137","0.0-8.0-0.1","lxdk9vhv980v97p","1","60cb78a6d16b4828beb5cbb7","23","07/1998","Single","English","none","Male","White or Caucasian","No","High School","Yes, Undergraduate studies","N/A","n/A","N/A","4","0","3","1","4","0.516666666","stim/H010.jpg","76","76","0.5","3","1","3","","3","3","2","2","2","2","3","4","0","3","0","3","1","4","1","4","4","1","2","0","0","4","1","3","5","4","1","3","4","5","1","1","4","1","3","3","3","3","2","3","3","3","3","3","3","1","5","4","4","4","3","4","5","5","4","3","1","0","3","3","2","agree","null","","","","","","","","stim/T220.jpg","null","","",""
"html-keyboard-response","15","380676","0.0-8.0-1.1","lxdk9vhv980v97p","1","60cb78a6d16b4828beb5cbb7","23","07/1998","Single","English","none","Male","White or Caucasian","No","High School","Yes, Undergraduate studies","N/A","n/A","N/A","4","0","3","1","4","0.516666666","stim/H010.jpg","76","76","0.5","3","1","3","","3","3","2","2","2","2","3","4","0","3","0","3","1","4","1","4","4","1","2","0","0","4","1","3","5","4","1","3","4","5","1","1","4","1","3","3","3","3","2","3","3","3","3","3","3","1","5","4","4","4","3","4","5","5","4","3","1","0","3","3","2","agree","537.7999999988824","","","","","","","","<div style=""font-size:60px;"">?</div>","65","2","Practice","0.5"
"image-keyboard-response","16","381690","0.0-8.0-0.2","lxdk9vhv980v97p","1","60cb78a6d16b4828beb5cbb7","23","07/1998","Single","English","none","Male","White or Caucasian","No","High School","Yes, Undergraduate studies","N/A","n/A","N/A","4","0","3","1","4","0.516666666","stim/H010.jpg","76","76","0.5","3","1","3","","3","3","2","2","2","2","3","4","0","3","0","3","1","4","1","4","4","1","2","0","0","4","1","3","5","4","1","3","4","5","1","1","4","1","3","3","3","3","2","3","3","3","3","3","3","1","5","4","4","4","3","4","5","5","4","3","1","0","3","3","2","agree","null","","","","","","","","stim/H080.jpg","null","","",""
"html-keyboard-response","17","382116","0.0-8.0-1.2","lxdk9vhv980v97p","1","60cb78a6d16b4828beb5cbb7","23","07/1998","Single","English","none","Male","White or Caucasian","No","High School","Yes, Undergraduate studies","N/A","n/A","N/A","4","0","3","1","4","0.516666666","stim/H010.jpg","76","76","0.5","3","1","3","","3","3","2","2","2","2","3","4","0","3","0","3","1","4","1","4","4","1","2","0","0","4","1","3","5","4","1","3","4","5","1","1","4","1","3","3","3","3","2","3","3","3","3","3","3","1","5","4","4","4","3","4","5","5","4","3","1","0","3","3","2","agree","424.8999999985099","","","","","","","","<div style=""font-size:60px;"">?</div>","76","3","Practice","0.5"
"image-keyboard-response","18","383127","0.0-8.0-0.3","lxdk9vhv980v97p","1","60cb78a6d16b4828beb5cbb7","23","07/1998","Single","English","none","Male","White or Caucasian","No","High School","Yes, Undergraduate studies","N/A","n/A","N/A","4","0","3","1","4","0.516666666","stim/H010.jpg","76","76","0.5","3","1","3","","3","3","2","2","2","2","3","4","0","3","0","3","1","4","1","4","4","1","2","0","0","4","1","3","5","4","1","3","4","5","1","1","4","1","3","3","3","3","2","3","3","3","3","3","3","1","5","4","4","4","3","4","5","5","4","3","1","0","3","3","2","agree","null","","","","","","","","stim/H180.jpg","null","","",""
"html-keyboard-response","19","383492","0.0-8.0-1.3","lxdk9vhv980v97p","1","60cb78a6d16b4828beb5cbb7","23","07/1998","Single","English","none","Male","White or Caucasian","No","High School","Yes, Undergraduate studies","N/A","n/A","N/A","4","0","3","1","4","0.516666666","stim/H010.jpg","76","76","0.5","3","1","3","","3","3","2","2","2","2","3","4","0","3","0","3","1","4","1","4","4","1","2","0","0","4","1","3","5","4","1","3","4","5","1","1","4","1","3","3","3","3","2","3","3","3","3","3","3","1","5","4","4","4","3","4","5","5","4","3","1","0","3","3","2","agree","363.69999999925494","","","","","","","","<div style=""font-size:60px;"">?</div>","76","4","Practice","0.5"
"image-keyboard-response","20","384509","0.0-8.0-0.4","lxdk9vhv980v97p","1","60cb78a6d16b4828beb5cbb7","23","07/1998","Single","English","none","Male","White or Caucasian","No","High School","Yes, Undergraduate studies","N/A","n/A","N/A","4","0","3","1","4","0.516666666","stim/H010.jpg","76","76","0.5","3","1","3","","3","3","2","2","2","2","3","4","0","3","0","3","1","4","1","4","4","1","2","0","0","4","1","3","5","4","1","3","4","5","1","1","4","1","3","3","3","3","2","3","3","3","3","3","3","1","5","4","4","4","3","4","5","5","4","3","1","0","3","3","2","agree","null","","","","","","","","stim/H210.jpg","null","","",""
"html-keyboard-response","21","384868","0.0-8.0-1.4","lxdk9vhv980v97p","1","60cb78a6d16b4828beb5cbb7","23","07/1998","Single","English","none","Male","White or Caucasian","No","High School","Yes, Undergraduate studies","N/A","n/A","N/A","4","0","3","1","4","0.516666666","stim/H010.jpg","76","76","0.5","3","1","3","","3","3","2","2","2","2","3","4","0","3","0","3","1","4","1","4","4","1","2","0","0","4","1","3","5","4","1","3","4","5","1","1","4","1","3","3","3","3","2","3","3","3","3","3","3","1","5","4","4","4","3","4","5","5","4","3","1","0","3","3","2","agree","358.2000000011176","","","","","","","","<div style=""font-size:60px;"">?</div>","76","5","Practice","0.5"
"image-keyboard-response","22","385878","0.0-8.0-0.5","lxdk9vhv980v97p","1","60cb78a6d16b4828beb5cbb7","23","07/1998","Single","English","none","Male","White or Caucasian","No","High School","Yes, Undergraduate studies","N/A","n/A","N/A","4","0","3","1","4","0.516666666","stim/H010.jpg","76","76","0.5","3","1","3","","3","3","2","2","2","2","3","4","0","3","0","3","1","4","1","4","4","1","2","0","0","4","1","3","5","4","1","3","4","5","1","1","4","1","3","3","3","3","2","3","3","3","3","3","3","1","5","4","4","4","3","4","5","5","4","3","1","0","3","3","2","agree","null","","","","","","","","stim/H040.jpg","null","","",""
"html-keyboard-response","23","386196","0.0-8.0-1.5","lxdk9vhv980v97p","1","60cb78a6d16b4828beb5cbb7","23","07/1998","Single","English","none","Male","White or Caucasian","No","High School","Yes, Undergraduate studies","N/A","n/A","N/A","4","0","3","1","4","0.516666666","stim/H010.jpg","76","76","0.5","3","1","3","","3","3","2","2","2","2","3","4","0","3","0","3","1","4","1","4","4","1","2","0","0","4","1","3","5","4","1","3","4","5","1","1","4","1","3","3","3","3","2","3","3","3","3","3","3","1","5","4","4","4","3","4","5","5","4","3","1","0","3","3","2","agree","317.7000000011176","","","","","","","","<div style=""font-size:60px;"">?</div>","76","6","Practice","0.5"
"image-keyboard-response","24","387225","0.0-8.0-0.6","lxdk9vhv980v97p","1","60cb78a6d16b4828beb5cbb7","23","07/1998","Single","English","none","Male","White or Caucasian","No","High School","Yes, Undergraduate studies","N/A","n/A","N/A","4","0","3","1","4","0.516666666","stim/H010.jpg","76","76","0.5","3","1","3","","3","3","2","2","2","2","3","4","0","3","0","3","1","4","1","4","4","1","2","0","0","4","1","3","5","4","1","3","4","5","1","1","4","1","3","3","3","3","2","3","3","3","3","3","3","1","5","4","4","4","3","4","5","5","4","3","1","0","3","3","2","agree","null","","","","","","","","stim/H160.jpg","null","","",""
"html-keyboard-response","25","387652","0.0-8.0-1.6","lxdk9vhv980v97p","1","60cb78a6d16b4828beb5cbb7","23","07/1998","Single","English","none","Male","White or Caucasian","No","High School","Yes, Undergraduate studies","N/A","n/A","N/A","4","0","3","1","4","0.516666666","stim/H010.jpg","76","76","0.5","3","1","3","","3","3","2","2","2","2","3","4","0","3","0","3","1","4","1","4","4","1","2","0","0","4","1","3","5","4","1","3","4","5","1","1","4","1","3","3","3","3","2","3","3","3","3","3","3","1","5","4","4","4","3","4","5","5","4","3","1","0","3","3","2","agree","425.69999999925494","","","","","","","","<div style=""font-size:60px;"">?</div>","76","7","Practice","0.5"
"image-keyboard-response","26","388680","0.0-8.0-0.7","lxdk9vhv980v97p","1","60cb78a6d16b4828beb5cbb7","23","07/1998","Single","English","none","Male","White or Caucasian","No","High School","Yes, Undergraduate studies","N/A","n/A","N/A","4","0","3","1","4","0.516666666","stim/H010.jpg","76","76","0.5","3","1","3","","3","3","2","2","2","2","3","4","0","3","0","3","1","4","1","4","4","1","2","0","0","4","1","3","5","4","1","3","4","5","1","1","4","1","3","3","3","3","2","3","3","3","3","3","3","1","5","4","4","4","3","4","5","5","4","3","1","0","3","3","2","agree","null","","","","","","","","stim/T120.jpg","null","","",""
"html-keyboard-response","27","389020","0.0-8.0-1.7","lxdk9vhv980v97p","1","60cb78a6d16b4828beb5cbb7","23","07/1998","Single","English","none","Male","White or Caucasian","No","High School","Yes, Undergraduate studies","N/A","n/A","N/A","4","0","3","1","4","0.516666666","stim/H010.jpg","76","76","0.5","3","1","3","","3","3","2","2","2","2","3","4","0","3","0","3","1","4","1","4","4","1","2","0","0","4","1","3","5","4","1","3","4","5","1","1","4","1","3","3","3","3","2","3","3","3","3","3","3","1","5","4","4","4","3","4","5","5","4","3","1","0","3","3","2","agree","339.2999999988824","","","","","","","","<div style=""font-size:60px;"">?</div>","65","8","Practice","0.5"
"image-keyboard-response","28","390031","0.0-8.0-0.8","lxdk9vhv980v97p","1","60cb78a6d16b4828beb5cbb7","23","07/1998","Single","English","none","Male","White or Caucasian","No","High School","Yes, Undergraduate studies","N/A","n/A","N/A","4","0","3","1","4","0.516666666","stim/H010.jpg","76","76","0.5","3","1","3","","3","3","2","2","2","2","3","4","0","3","0","3","1","4","1","4","4","1","2","0","0","4","1","3","5","4","1","3","4","5","1","1","4","1","3","3","3","3","2","3","3","3","3","3","3","1","5","4","4","4","3","4","5","5","4","3","1","0","3","3","2","agree","null","","","","","","","","stim/T140.jpg","null","","",""
"html-keyboard-response","29","390268","0.0-8.0-1.8","lxdk9vhv980v97p","1","60cb78a6d16b4828beb5cbb7","23","07/1998","Single","English","none","Male","White or Caucasian","No","High School","Yes, Undergraduate studies","N/A","n/A","N/A","4","0","3","1","4","0.516666666","stim/H010.jpg","76","76","0.5","3","1","3","","3","3","2","2","2","2","3","4","0","3","0","3","1","4","1","4","4","1","2","0","0","4","1","3","5","4","1","3","4","5","1","1","4","1","3","3","3","3","2","3","3","3","3","3","3","1","5","4","4","4","3","4","5","5","4","3","1","0","3","3","2","agree","235.7999999988824","","","","","","","","<div style=""font-size:60px;"">?</div>","65","9","Practice","0.5"
"image-keyboard-response","30","391297","0.0-8.0-0.9","lxdk9vhv980v97p","1","60cb78a6d16b4828beb5cbb7","23","07/1998","Single","English","none","Male","White or Caucasian","No","High School","Yes, Undergraduate studies","N/A","n/A","N/A","4","0","3","1","4","0.516666666","stim/H010.jpg","76","76","0.5","3","1","3","","3","3","2","2","2","2","3","4","0","3","0","3","1","4","1","4","4","1","2","0","0","4","1","3","5","4","1","3","4","5","1","1","4","1","3","3","3","3","2","3","3","3","3","3","3","1","5","4","4","4","3","4","5","5","4","3","1","0","3","3","2","agree","null","","","","","","","","stim/T110.jpg","null","","",""
"html-keyboard-response","31","391540","0.0-8.0-1.9","lxdk9vhv980v97p","1","60cb78a6d16b4828beb5cbb7","23","07/1998","Single","English","none","Male","White or Caucasian","No","High School","Yes, Undergraduate studies","N/A","n/A","N/A","4","0","3","1","4","0.516666666","stim/H010.jpg","76","76","0.5","3","1","3","","3","3","2","2","2","2","3","4","0","3","0","3","1","4","1","4","4","1","2","0","0","4","1","3","5","4","1","3","4","5","1","1","4","1","3","3","3","3","2","3","3","3","3","3","3","1","5","4","4","4","3","4","5","5","4","3","1","0","3","3","2","agree","241.40000000037253","","","","","","","","<div style=""font-size:60px;"">?</div>","65","10","Practice","0.5"
"html-keyboard-response","32","397428","0.0-9.0","lxdk9vhv980v97p","1","60cb78a6d16b4828beb5cbb7","23","07/1998","Single","English","none","Male","White or Caucasian","No","High School","Yes, Undergraduate studies","N/A","n/A","N/A","4","0","3","1","4","0.516666666","stim/H010.jpg","76","76","0.5","3","1","3","","3","3","2","2","2","2","3","4","0","3","0","3","1","4","1","4","4","1","2","0","0","4","1","3","5","4","1","3","4","5","1","1","4","1","3","3","3","3","2","3","3","3","3","3","3","1","5","4","4","4","3","4","5","5","4","3","1","0","3","3","2","agree","5380.799999998882","","","","","","","","<p>You have now completed the practice series.</p><p>If you have any questions, please reload this page and read the instructions again.</p><p>Otherwise, you're ready to begin the study!</p><p><strong>REMEMBER</strong>: Press <b>L </b>when you think the face is of Western origin, and <b>A </b>if not. </p><p>Press SPACE when you're ready to start!</p>","32","","",""
"html-keyboard-response","33","398868","0.0-10.0","lxdk9vhv980v97p","1","60cb78a6d16b4828beb5cbb7","23","07/1998","Single","English","none","Male","White or Caucasian","No","High School","Yes, Undergraduate studies","N/A","n/A","N/A","4","0","3","1","4","0.516666666","stim/H010.jpg","76","76","0.5","3","1","3","","3","3","2","2","2","2","3","4","0","3","0","3","1","4","1","4","4","1","2","0","0","4","1","3","5","4","1","3","4","5","1","1","4","1","3","3","3","3","2","3","3","3","3","3","3","1","5","4","4","4","3","4","5","5","4","3","1","0","3","3","2","agree","931.8999999985099","","","","","","","","<p>Block 1</p><p>Press SPACE to continue.</p>","32","","",""
"image-keyboard-response","34","400389","0.0-11.0-0.0","lxdk9vhv980v97p","1","60cb78a6d16b4828beb5cbb7","23","07/1998","Single","English","none","Male","White or Caucasian","No","High School","Yes, Undergraduate studies","N/A","n/A","N/A","4","0","3","1","4","0.516666666","stim/H010.jpg","76","76","0.5","3","1","3","","3","3","2","2","2","2","3","4","0","3","0","3","1","4","1","4","4","1","2","0","0","4","1","3","5","4","1","3","4","5","1","1","4","1","3","3","3","3","2","3","3","3","3","3","3","1","5","4","4","4","3","4","5","5","4","3","1","0","3","3","2","agree","null","","","","","","","","stim/H160.jpg","null","","",""
"html-keyboard-response","35","400740","0.0-11.0-1.0","lxdk9vhv980v97p","1","60cb78a6d16b4828beb5cbb7","23","07/1998","Single","English","none","Male","White or Caucasian","No","High School","Yes, Undergraduate studies","N/A","n/A","N/A","4","0","3","1","4","0.516666666","stim/H010.jpg","76","76","0.5","3","1","3","","3","3","2","2","2","2","3","4","0","3","0","3","1","4","1","4","4","1","2","0","0","4","1","3","5","4","1","3","4","5","1","1","4","1","3","3","3","3","2","3","3","3","3","3","3","1","5","4","4","4","3","4","5","5","4","3","1","0","3","3","2","agree","349.59999999962747","","","","","","","","<div style=""font-size:60px;"">?</div>","76","1","1","0.8"
"image-keyboard-response","36","401763","0.0-11.0-0.1","lxdk9vhv980v97p","1","60cb78a6d16b4828beb5cbb7","23","07/1998","Single","English","none","Male","White or Caucasian","No","High School","Yes, Undergraduate studies","N/A","n/A","N/A","4","0","3","1","4","0.516666666","stim/H010.jpg","76","76","0.5","3","1","3","","3","3","2","2","2","2","3","4","0","3","0","3","1","4","1","4","4","1","2","0","0","4","1","3","5","4","1","3","4","5","1","1","4","1","3","3","3","3","2","3","3","3","3","3","3","1","5","4","4","4","3","4","5","5","4","3","1","0","3","3","2","agree","null","","","","","","","","stim/H220.jpg","null","","",""
"html-keyboard-response","37","402084","0.0-11.0-1.1","lxdk9vhv980v97p","1","60cb78a6d16b4828beb5cbb7","23","07/1998","Single","English","none","Male","White or Caucasian","No","High School","Yes, Undergraduate studies","N/A","n/A","N/A","4","0","3","1","4","0.516666666","stim/H010.jpg","76","76","0.5","3","1","3","","3","3","2","2","2","2","3","4","0","3","0","3","1","4","1","4","4","1","2","0","0","4","1","3","5","4","1","3","4","5","1","1","4","1","3","3","3","3","2","3","3","3","3","3","3","1","5","4","4","4","3","4","5","5","4","3","1","0","3","3","2","agree","320.19999999925494","","","","","","","","<div style=""font-size:60px;"">?</div>","76","2","1","0.8"
"image-keyboard-response","38","403095","0.0-11.0-0.2","lxdk9vhv980v97p","1","60cb78a6d16b4828beb5cbb7","23","07/1998","Single","English","none","Male","White or Caucasian","No","High School","Yes, Undergraduate studies","N/A","n/A","N/A","4","0","3","1","4","0.516666666","stim/H010.jpg","76","76","0.5","3","1","3","","3","3","2","2","2","2","3","4","0","3","0","3","1","4","1","4","4","1","2","0","0","4","1","3","5","4","1","3","4","5","1","1","4","1","3","3","3","3","2","3","3","3","3","3","3","1","5","4","4","4","3","4","5","5","4","3","1","0","3","3","2","agree","null","","","","","","","","stim/H120.jpg","null","","",""
"html-keyboard-response","39","403371","0.0-11.0-1.2","lxdk9vhv980v97p","1","60cb78a6d16b4828beb5cbb7","23","07/1998","Single","English","none","Male","White or Caucasian","No","High School","Yes, Undergraduate studies","N/A","n/A","N/A","4","0","3","1","4","0.516666666","stim/H010.jpg","76","76","0.5","3","1","3","","3","3","2","2","2","2","3","4","0","3","0","3","1","4","1","4","4","1","2","0","0","4","1","3","5","4","1","3","4","5","1","1","4","1","3","3","3","3","2","3","3","3","3","3","3","1","5","4","4","4","3","4","5","5","4","3","1","0","3","3","2","agree","276.19999999925494","","","","","","","","<div style=""font-size:60px;"">?</div>","76","3","1","0.8"
"image-keyboard-response","40","404379","0.0-11.0-0.3","lxdk9vhv980v97p","1","60cb78a6d16b4828beb5cbb7","23","07/1998","Single","English","none","Male","White or Caucasian","No","High School","Yes, Undergraduate studies","N/A","n/A","N/A","4","0","3","1","4","0.516666666","stim/H010.jpg","76","76","0.5","3","1","3","","3","3","2","2","2","2","3","4","0","3","0","3","1","4","1","4","4","1","2","0","0","4","1","3","5","4","1","3","4","5","1","1","4","1","3","3","3","3","2","3","3","3","3","3","3","1","5","4","4","4","3","4","5","5","4","3","1","0","3","3","2","agree","null","","","","","","","","stim/H090.jpg","null","","",""
"html-keyboard-response","41","404675","0.0-11.0-1.3","lxdk9vhv980v97p","1","60cb78a6d16b4828beb5cbb7","23","07/1998","Single","English","none","Male","White or Caucasian","No","High School","Yes, Undergraduate studies","N/A","n/A","N/A","4","0","3","1","4","0.516666666","stim/H010.jpg","76","76","0.5","3","1","3","","3","3","2","2","2","2","3","4","0","3","0","3","1","4","1","4","4","1","2","0","0","4","1","3","5","4","1","3","4","5","1","1","4","1","3","3","3","3","2","3","3","3","3","3","3","1","5","4","4","4","3","4","5","5","4","3","1","0","3","3","2","agree","296.2000000011176","","","","","","","","<div style=""font-size:60px;"">?</div>","76","4","1","0.8"
"image-keyboard-response","42","405693","0.0-11.0-0.4","lxdk9vhv980v97p","1","60cb78a6d16b4828beb5cbb7","23","07/1998","Single","English","none","Male","White or Caucasian","No","High School","Yes, Undergraduate studies","N/A","n/A","N/A","4","0","3","1","4","0.516666666","stim/H010.jpg","76","76","0.5","3","1","3","","3","3","2","2","2","2","3","4","0","3","0","3","1","4","1","4","4","1","2","0","0","4","1","3","5","4","1","3","4","5","1","1","4","1","3","3","3","3","2","3","3","3","3","3","3","1","5","4","4","4","3","4","5","5","4","3","1","0","3","3","2","agree","null","","","","","","","","stim/H290.jpg","null","","",""
"html-keyboard-response","43","405955","0.0-11.0-1.4","lxdk9vhv980v97p","1","60cb78a6d16b4828beb5cbb7","23","07/1998","Single","English","none","Male","White or Caucasian","No","High School","Yes, Undergraduate studies","N/A","n/A","N/A","4","0","3","1","4","0.516666666","stim/H010.jpg","76","76","0.5","3","1","3","","3","3","2","2","2","2","3","4","0","3","0","3","1","4","1","4","4","1","2","0","0","4","1","3","5","4","1","3","4","5","1","1","4","1","3","3","3","3","2","3","3","3","3","3","3","1","5","4","4","4","3","4","5","5","4","3","1","0","3","3","2","agree","261.69999999925494","","","","","","","","<div style=""font-size:60px;"">?</div>","76","5","1","0.8"
"image-keyboard-response","44","406962","0.0-11.0-0.5","lxdk9vhv980v97p","1","60cb78a6d16b4828beb5cbb7","23","07/1998","Single","English","none","Male","White or Caucasian","No","High School","Yes, Undergraduate studies","N/A","n/A","N/A","4","0","3","1","4","0.516666666","stim/H010.jpg","76","76","0.5","3","1","3","","3","3","2","2","2","2","3","4","0","3","0","3","1","4","1","4","4","1","2","0","0","4","1","3","5","4","1","3","4","5","1","1","4","1","3","3","3","3","2","3","3","3","3","3","3","1","5","4","4","4","3","4","5","5","4","3","1","0","3","3","2","agree","null","","","","","","","","stim/H040.jpg","null","","",""
"html-keyboard-response","45","407820","0.0-11.0-1.5","lxdk9vhv980v97p","1","60cb78a6d16b4828beb5cbb7","23","07/1998","Single","English","none","Male","White or Caucasian","No","High School","Yes, Undergraduate studies","N/A","n/A","N/A","4","0","3","1","4","0.516666666","stim/H010.jpg","76","76","0.5","3","1","3","","3","3","2","2","2","2","3","4","0","3","0","3","1","4","1","4","4","1","2","0","0","4","1","3","5","4","1","3","4","5","1","1","4","1","3","3","3","3","2","3","3","3","3","3","3","1","5","4","4","4","3","4","5","5","4","3","1","0","3","3","2","agree","856.9000000003725","","","","","","","","<div style=""font-size:60px;"">?</div>","76","6","1","0.8"
"image-keyboard-response","46","408847","0.0-11.0-0.6","lxdk9vhv980v97p","1","60cb78a6d16b4828beb5cbb7","23","07/1998","Single","English","none","Male","White or Caucasian","No","High School","Yes, Undergraduate studies","N/A","n/A","N/A","4","0","3","1","4","0.516666666","stim/H010.jpg","76","76","0.5","3","1","3","","3","3","2","2","2","2","3","4","0","3","0","3","1","4","1","4","4","1","2","0","0","4","1","3","5","4","1","3","4","5","1","1","4","1","3","3","3","3","2","3","3","3","3","3","3","1","5","4","4","4","3","4","5","5","4","3","1","0","3","3","2","agree","null","","","","","","","","stim/H090.jpg","null","","",""
"html-keyboard-response","47","409139","0.0-11.0-1.6","lxdk9vhv980v97p","1","60cb78a6d16b4828beb5cbb7","23","07/1998","Single","English","none","Male","White or Caucasian","No","High School","Yes, Undergraduate studies","N/A","n/A","N/A","4","0","3","1","4","0.516666666","stim/H010.jpg","76","76","0.5","3","1","3","","3","3","2","2","2","2","3","4","0","3","0","3","1","4","1","4","4","1","2","0","0","4","1","3","5","4","1","3","4","5","1","1","4","1","3","3","3","3","2","3","3","3","3","3","3","1","5","4","4","4","3","4","5","5","4","3","1","0","3","3","2","agree","292","","","","","","","","<div style=""font-size:60px;"">?</div>","76","7","1","0.8"
"image-keyboard-response","48","410164","0.0-11.0-0.7","lxdk9vhv980v97p","1","60cb78a6d16b4828beb5cbb7","23","07/1998","Single","English","none","Male","White or Caucasian","No","High School","Yes, Undergraduate studies","N/A","n/A","N/A","4","0","3","1","4","0.516666666","stim/H010.jpg","76","76","0.5","3","1","3","","3","3","2","2","2","2","3","4","0","3","0","3","1","4","1","4","4","1","2","0","0","4","1","3","5","4","1","3","4","5","1","1","4","1","3","3","3","3","2","3","3","3","3","3","3","1","5","4","4","4","3","4","5","5","4","3","1","0","3","3","2","agree","null","","","","","","","","stim/H280.jpg","null","","",""
"html-keyboard-response","49","410507","0.0-11.0-1.7","lxdk9vhv980v97p","1","60cb78a6d16b4828beb5cbb7","23","07/1998","Single","English","none","Male","White or Caucasian","No","High School","Yes, Undergraduate studies","N/A","n/A","N/A","4","0","3","1","4","0.516666666","stim/H010.jpg","76","76","0.5","3","1","3","","3","3","2","2","2","2","3","4","0","3","0","3","1","4","1","4","4","1","2","0","0","4","1","3","5","4","1","3","4","5","1","1","4","1","3","3","3","3","2","3","3","3","3","3","3","1","5","4","4","4","3","4","5","5","4","3","1","0","3","3","2","agree","342.69999999925494","","","","","","","","<div style=""font-size:60px;"">?</div>","76","8","1","0.8"
"image-keyboard-response","50","411516","0.0-11.0-0.8","lxdk9vhv980v97p","1","60cb78a6d16b4828beb5cbb7","23","07/1998","Single","English","none","Male","White or Caucasian","No","High School","Yes, Undergraduate studies","N/A","n/A","N/A","4","0","3","1","4","0.516666666","stim/H010.jpg","76","76","0.5","3","1","3","","3","3","2","2","2","2","3","4","0","3","0","3","1","4","1","4","4","1","2","0","0","4","1","3","5","4","1","3","4","5","1","1","4","1","3","3","3","3","2","3","3","3","3","3","3","1","5","4","4","4","3","4","5","5","4","3","1","0","3","3","2","agree","null","","","","","","","","stim/H120.jpg","null","","",""
"html-keyboard-response","51","411771","0.0-11.0-1.8","lxdk9vhv980v97p","1","60cb78a6d16b4828beb5cbb7","23","07/1998","Single","English","none","Male","White or Caucasian","No","High School","Yes, Undergraduate studies","N/A","n/A","N/A","4","0","3","1","4","0.516666666","stim/H010.jpg","76","76","0.5","3","1","3","","3","3","2","2","2","2","3","4","0","3","0","3","1","4","1","4","4","1","2","0","0","4","1","3","5","4","1","3","4","5","1","1","4","1","3","3","3","3","2","3","3","3","3","3","3","1","5","4","4","4","3","4","5","5","4","3","1","0","3","3","2","agree","254.69999999925494","","","","","","","","<div style=""font-size:60px;"">?</div>","76","9","1","0.8"
"image-keyboard-response","52","412797","0.0-11.0-0.9","lxdk9vhv980v97p","1","60cb78a6d16b4828beb5cbb7","23","07/1998","Single","English","none","Male","White or Caucasian","No","High School","Yes, Undergraduate studies","N/A","n/A","N/A","4","0","3","1","4","0.516666666","stim/H010.jpg","76","76","0.5","3","1","3","","3","3","2","2","2","2","3","4","0","3","0","3","1","4","1","4","4","1","2","0","0","4","1","3","5","4","1","3","4","5","1","1","4","1","3","3","3","3","2","3","3","3","3","3","3","1","5","4","4","4","3","4","5","5","4","3","1","0","3","3","2","agree","null","","","","","","","","stim/T180.jpg","null","","",""
"html-keyboard-response","53","413108","0.0-11.0-1.9","lxdk9vhv980v97p","1","60cb78a6d16b4828beb5cbb7","23","07/1998","Single","English","none","Male","White or Caucasian","No","High School","Yes, Undergraduate studies","N/A","n/A","N/A","4","0","3","1","4","0.516666666","stim/H010.jpg","76","76","0.5","3","1","3","","3","3","2","2","2","2","3","4","0","3","0","3","1","4","1","4","4","1","2","0","0","4","1","3","5","4","1","3","4","5","1","1","4","1","3","3","3","3","2","3","3","3","3","3","3","1","5","4","4","4","3","4","5","5","4","3","1","0","3","3","2","agree","310","","","","","","","","<div style=""font-size:60px;"">?</div>","65","10","1","0.8"
"image-keyboard-response","54","414120","0.0-11.0-0.10","lxdk9vhv980v97p","1","60cb78a6d16b4828beb5cbb7","23","07/1998","Single","English","none","Male","White or Caucasian","No","High School","Yes, Undergraduate studies","N/A","n/A","N/A","4","0","3","1","4","0.516666666","stim/H010.jpg","76","76","0.5","3","1","3","","3","3","2","2","2","2","3","4","0","3","0","3","1","4","1","4","4","1","2","0","0","4","1","3","5","4","1","3","4","5","1","1","4","1","3","3","3","3","2","3","3","3","3","3","3","1","5","4","4","4","3","4","5","5","4","3","1","0","3","3","2","agree","null","","","","","","","","stim/H030.jpg","null","","",""
"html-keyboard-response","55","414380","0.0-11.0-1.10","lxdk9vhv980v97p","1","60cb78a6d16b4828beb5cbb7","23","07/1998","Single","English","none","Male","White or Caucasian","No","High School","Yes, Undergraduate studies","N/A","n/A","N/A","4","0","3","1","4","0.516666666","stim/H010.jpg","76","76","0.5","3","1","3","","3","3","2","2","2","2","3","4","0","3","0","3","1","4","1","4","4","1","2","0","0","4","1","3","5","4","1","3","4","5","1","1","4","1","3","3","3","3","2","3","3","3","3","3","3","1","5","4","4","4","3","4","5","5","4","3","1","0","3","3","2","agree","258.7999999988824","","","","","","","","<div style=""font-size:60px;"">?</div>","76","11","1","0.8"
"image-keyboard-response","56","415387","0.0-11.0-0.11","lxdk9vhv980v97p","1","60cb78a6d16b4828beb5cbb7","23","07/1998","Single","English","none","Male","White or Caucasian","No","High School","Yes, Undergraduate studies","N/A","n/A","N/A","4","0","3","1","4","0.516666666","stim/H010.jpg","76","76","0.5","3","1","3","","3","3","2","2","2","2","3","4","0","3","0","3","1","4","1","4","4","1","2","0","0","4","1","3","5","4","1","3","4","5","1","1","4","1","3","3","3","3","2","3","3","3","3","3","3","1","5","4","4","4","3","4","5","5","4","3","1","0","3","3","2","agree","null","","","","","","","","stim/H020.jpg","null","","",""
"html-keyboard-response","57","415700","0.0-11.0-1.11","lxdk9vhv980v97p","1","60cb78a6d16b4828beb5cbb7","23","07/1998","Single","English","none","Male","White or Caucasian","No","High School","Yes, Undergraduate studies","N/A","n/A","N/A","4","0","3","1","4","0.516666666","stim/H010.jpg","76","76","0.5","3","1","3","","3","3","2","2","2","2","3","4","0","3","0","3","1","4","1","4","4","1","2","0","0","4","1","3","5","4","1","3","4","5","1","1","4","1","3","3","3","3","2","3","3","3","3","3","3","1","5","4","4","4","3","4","5","5","4","3","1","0","3","3","2","agree","311.90000000037253","","","","","","","","<div style=""font-size:60px;"">?</div>","76","12","1","0.8"
"image-keyboard-response","58","416705","0.0-11.0-0.12","lxdk9vhv980v97p","1","60cb78a6d16b4828beb5cbb7","23","07/1998","Single","English","none","Male","White or Caucasian","No","High School","Yes, Undergraduate studies","N/A","n/A","N/A","4","0","3","1","4","0.516666666","stim/H010.jpg","76","76","0.5","3","1","3","","3","3","2","2","2","2","3","4","0","3","0","3","1","4","1","4","4","1","2","0","0","4","1","3","5","4","1","3","4","5","1","1","4","1","3","3","3","3","2","3","3","3","3","3","3","1","5","4","4","4","3","4","5","5","4","3","1","0","3","3","2","agree","null","","","","","","","","stim/H150.jpg","null","","",""
"html-keyboard-response","59","416938","0.0-11.0-1.12","lxdk9vhv980v97p","1","60cb78a6d16b4828beb5cbb7","23","07/1998","Single","English","none","Male","White or Caucasian","No","High School","Yes, Undergraduate studies","N/A","n/A","N/A","4","0","3","1","4","0.516666666","stim/H010.jpg","76","76","0.5","3","1","3","","3","3","2","2","2","2","3","4","0","3","0","3","1","4","1","4","4","1","2","0","0","4","1","3","5","4","1","3","4","5","1","1","4","1","3","3","3","3","2","3","3","3","3","3","3","1","5","4","4","4","3","4","5","5","4","3","1","0","3","3","2","agree","241.69999999925494","","","","","","","","<div style=""font-size:60px;"">?</div>","76","13","1","0.8"
"image-keyboard-response","60","417947","0.0-11.0-0.13","lxdk9vhv980v97p","1","60cb78a6d16b4828beb5cbb7","23","07/1998","Single","English","none","Male","White or Caucasian","No","High School","Yes, Undergraduate studies","N/A","n/A","N/A","4","0","3","1","4","0.516666666","stim/H010.jpg","76","76","0.5","3","1","3","","3","3","2","2","2","2","3","4","0","3","0","3","1","4","1","4","4","1","2","0","0","4","1","3","5","4","1","3","4","5","1","1","4","1","3","3","3","3","2","3","3","3","3","3","3","1","5","4","4","4","3","4","5","5","4","3","1","0","3","3","2","agree","null","","","","","","","","stim/H250.jpg","null","","",""
"html-keyboard-response","61","418203","0.0-11.0-1.13","lxdk9vhv980v97p","1","60cb78a6d16b4828beb5cbb7","23","07/1998","Single","English","none","Male","White or Caucasian","No","High School","Yes, Undergraduate studies","N/A","n/A","N/A","4","0","3","1","4","0.516666666","stim/H010.jpg","76","76","0.5","3","1","3","","3","3","2","2","2","2","3","4","0","3","0","3","1","4","1","4","4","1","2","0","0","4","1","3","5","4","1","3","4","5","1","1","4","1","3","3","3","3","2","3","3","3","3","3","3","1","5","4","4","4","3","4","5","5","4","3","1","0","3","3","2","agree","255.59999999962747","","","","","","","","<div style=""font-size:60px;"">?</div>","76","14","1","0.8"
"image-keyboard-response","62","419215","0.0-11.0-0.14","lxdk9vhv980v97p","1","60cb78a6d16b4828beb5cbb7","23","07/1998","Single","English","none","Male","White or Caucasian","No","High School","Yes, Undergraduate studies","N/A","n/A","N/A","4","0","3","1","4","0.516666666","stim/H010.jpg","76","76","0.5","3","1","3","","3","3","2","2","2","2","3","4","0","3","0","3","1","4","1","4","4","1","2","0","0","4","1","3","5","4","1","3","4","5","1","1","4","1","3","3","3","3","2","3","3","3","3","3","3","1","5","4","4","4","3","4","5","5","4","3","1","0","3","3","2","agree","null","","","","","","","","stim/H230.jpg","null","","",""
"html-keyboard-response","63","419523","0.0-11.0-1.14","lxdk9vhv980v97p","1","60cb78a6d16b4828beb5cbb7","23","07/1998","Single","English","none","Male","White or Caucasian","No","High School","Yes, Undergraduate studies","N/A","n/A","N/A","4","0","3","1","4","0.516666666","stim/H010.jpg","76","76","0.5","3","1","3","","3","3","2","2","2","2","3","4","0","3","0","3","1","4","1","4","4","1","2","0","0","4","1","3","5","4","1","3","4","5","1","1","4","1","3","3","3","3","2","3","3","3","3","3","3","1","5","4","4","4","3","4","5","5","4","3","1","0","3","3","2","agree","307.2000000011176","","","","","","","","<div style=""font-size:60px;"">?</div>","76","15","1","0.8"
"image-keyboard-response","64","420547","0.0-11.0-0.15","lxdk9vhv980v97p","1","60cb78a6d16b4828beb5cbb7","23","07/1998","Single","English","none","Male","White or Caucasian","No","High School","Yes, Undergraduate studies","N/A","n/A","N/A","4","0","3","1","4","0.516666666","stim/H010.jpg","76","76","0.5","3","1","3","","3","3","2","2","2","2","3","4","0","3","0","3","1","4","1","4","4","1","2","0","0","4","1","3","5","4","1","3","4","5","1","1","4","1","3","3","3","3","2","3","3","3","3","3","3","1","5","4","4","4","3","4","5","5","4","3","1","0","3","3","2","agree","null","","","","","","","","stim/H260.jpg","null","","",""
"html-keyboard-response","65","420794","0.0-11.0-1.15","lxdk9vhv980v97p","1","60cb78a6d16b4828beb5cbb7","23","07/1998","Single","English","none","Male","White or Caucasian","No","High School","Yes, Undergraduate studies","N/A","n/A","N/A","4","0","3","1","4","0.516666666","stim/H010.jpg","76","76","0.5","3","1","3","","3","3","2","2","2","2","3","4","0","3","0","3","1","4","1","4","4","1","2","0","0","4","1","3","5","4","1","3","4","5","1","1","4","1","3","3","3","3","2","3","3","3","3","3","3","1","5","4","4","4","3","4","5","5","4","3","1","0","3","3","2","agree","246.19999999925494","","","","","","","","<div style=""font-size:60px;"">?</div>","76","16","1","0.8"
"image-keyboard-response","66","421803","0.0-11.0-0.16","lxdk9vhv980v97p","1","60cb78a6d16b4828beb5cbb7","23","07/1998","Single","English","none","Male","White or Caucasian","No","High School","Yes, Undergraduate studies","N/A","n/A","N/A","4","0","3","1","4","0.516666666","stim/H010.jpg","76","76","0.5","3","1","3","","3","3","2","2","2","2","3","4","0","3","0","3","1","4","1","4","4","1","2","0","0","4","1","3","5","4","1","3","4","5","1","1","4","1","3","3","3","3","2","3","3","3","3","3","3","1","5","4","4","4","3","4","5","5","4","3","1","0","3","3","2","agree","null","","","","","","","","stim/H090.jpg","null","","",""
"html-keyboard-response","67","422347","0.0-11.0-1.16","lxdk9vhv980v97p","1","60cb78a6d16b4828beb5cbb7","23","07/1998","Single","English","none","Male","White or Caucasian","No","High School","Yes, Undergraduate studies","N/A","n/A","N/A","4","0","3","1","4","0.516666666","stim/H010.jpg","76","76","0.5","3","1","3","","3","3","2","2","2","2","3","4","0","3","0","3","1","4","1","4","4","1","2","0","0","4","1","3","5","4","1","3","4","5","1","1","4","1","3","3","3","3","2","3","3","3","3","3","3","1","5","4","4","4","3","4","5","5","4","3","1","0","3","3","2","agree","543.4000000003725","","","","","","","","<div style=""font-size:60px;"">?</div>","76","17","1","0.8"
"image-keyboard-response","68","423354","0.0-11.0-0.17","lxdk9vhv980v97p","1","60cb78a6d16b4828beb5cbb7","23","07/1998","Single","English","none","Male","White or Caucasian","No","High School","Yes, Undergraduate studies","N/A","n/A","N/A","4","0","3","1","4","0.516666666","stim/H010.jpg","76","76","0.5","3","1","3","","3","3","2","2","2","2","3","4","0","3","0","3","1","4","1","4","4","1","2","0","0","4","1","3","5","4","1","3","4","5","1","1","4","1","3","3","3","3","2","3","3","3","3","3","3","1","5","4","4","4","3","4","5","5","4","3","1","0","3","3","2","agree","null","","","","","","","","stim/T230.jpg","null","","",""
"html-keyboard-response","69","423650","0.0-11.0-1.17","lxdk9vhv980v97p","1","60cb78a6d16b4828beb5cbb7","23","07/1998","Single","English","none","Male","White or Caucasian","No","High School","Yes, Undergraduate studies","N/A","n/A","N/A","4","0","3","1","4","0.516666666","stim/H010.jpg","76","76","0.5","3","1","3","","3","3","2","2","2","2","3","4","0","3","0","3","1","4","1","4","4","1","2","0","0","4","1","3","5","4","1","3","4","5","1","1","4","1","3","3","3","3","2","3","3","3","3","3","3","1","5","4","4","4","3","4","5","5","4","3","1","0","3","3","2","agree","296","","","","","","","","<div style=""font-size:60px;"">?</div>","65","18","1","0.8"
"image-keyboard-response","70","424673","0.0-11.0-0.18","lxdk9vhv980v97p","1","60cb78a6d16b4828beb5cbb7","23","07/1998","Single","English","none","Male","White or Caucasian","No","High School","Yes, Undergraduate studies","N/A","n/A","N/A","4","0","3","1","4","0.516666666","stim/H010.jpg","76","76","0.5","3","1","3","","3","3","2","2","2","2","3","4","0","3","0","3","1","4","1","4","4","1","2","0","0","4","1","3","5","4","1","3","4","5","1","1","4","1","3","3","3","3","2","3","3","3","3","3","3","1","5","4","4","4","3","4","5","5","4","3","1","0","3","3","2","agree","null","","","","","","","","stim/H070.jpg","null","","",""
"html-keyboard-response","71","424970","0.0-11.0-1.18","lxdk9vhv980v97p","1","60cb78a6d16b4828beb5cbb7","23","07/1998","Single","English","none","Male","White or Caucasian","No","High School","Yes, Undergraduate studies","N/A","n/A","N/A","4","0","3","1","4","0.516666666","stim/H010.jpg","76","76","0.5","3","1","3","","3","3","2","2","2","2","3","4","0","3","0","3","1","4","1","4","4","1","2","0","0","4","1","3","5","4","1","3","4","5","1","1","4","1","3","3","3","3","2","3","3","3","3","3","3","1","5","4","4","4","3","4","5","5","4","3","1","0","3","3","2","agree","296","","","","","","","","<div style=""font-size:60px;"">?</div>","76","19","1","0.8"
"image-keyboard-response","72","425988","0.0-11.0-0.19","lxdk9vhv980v97p","1","60cb78a6d16b4828beb5cbb7","23","07/1998","Single","English","none","Male","White or Caucasian","No","High School","Yes, Undergraduate studies","N/A","n/A","N/A","4","0","3","1","4","0.516666666","stim/H010.jpg","76","76","0.5","3","1","3","","3","3","2","2","2","2","3","4","0","3","0","3","1","4","1","4","4","1","2","0","0","4","1","3","5","4","1","3","4","5","1","1","4","1","3","3","3","3","2","3","3","3","3","3","3","1","5","4","4","4","3","4","5","5","4","3","1","0","3","3","2","agree","null","","","","","","","","stim/H190.jpg","null","","",""
"html-keyboard-response","73","426242","0.0-11.0-1.19","lxdk9vhv980v97p","1","60cb78a6d16b4828beb5cbb7","23","07/1998","Single","English","none","Male","White or Caucasian","No","High School","Yes, Undergraduate studies","N/A","n/A","N/A","4","0","3","1","4","0.516666666","stim/H010.jpg","76","76","0.5","3","1","3","","3","3","2","2","2","2","3","4","0","3","0","3","1","4","1","4","4","1","2","0","0","4","1","3","5","4","1","3","4","5","1","1","4","1","3","3","3","3","2","3","3","3","3","3","3","1","5","4","4","4","3","4","5","5","4","3","1","0","3","3","2","agree","253.5","","","","","","","","<div style=""font-size:60px;"">?</div>","76","20","1","0.8"
"image-keyboard-response","74","427255","0.0-11.0-0.20","lxdk9vhv980v97p","1","60cb78a6d16b4828beb5cbb7","23","07/1998","Single","English","none","Male","White or Caucasian","No","High School","Yes, Undergraduate studies","N/A","n/A","N/A","4","0","3","1","4","0.516666666","stim/H010.jpg","76","76","0.5","3","1","3","","3","3","2","2","2","2","3","4","0","3","0","3","1","4","1","4","4","1","2","0","0","4","1","3","5","4","1","3","4","5","1","1","4","1","3","3","3","3","2","3","3","3","3","3","3","1","5","4","4","4","3","4","5","5","4","3","1","0","3","3","2","agree","null","","","","","","","","stim/H250.jpg","null","","",""
"html-keyboard-response","75","427530","0.0-11.0-1.20","lxdk9vhv980v97p","1","60cb78a6d16b4828beb5cbb7","23","07/1998","Single","English","none","Male","White or Caucasian","No","High School","Yes, Undergraduate studies","N/A","n/A","N/A","4","0","3","1","4","0.516666666","stim/H010.jpg","76","76","0.5","3","1","3","","3","3","2","2","2","2","3","4","0","3","0","3","1","4","1","4","4","1","2","0","0","4","1","3","5","4","1","3","4","5","1","1","4","1","3","3","3","3","2","3","3","3","3","3","3","1","5","4","4","4","3","4","5","5","4","3","1","0","3","3","2","agree","275.09999999962747","","","","","","","","<div style=""font-size:60px;"">?</div>","76","21","1","0.8"
"image-keyboard-response","76","428539","0.0-11.0-0.21","lxdk9vhv980v97p","1","60cb78a6d16b4828beb5cbb7","23","07/1998","Single","English","none","Male","White or Caucasian","No","High School","Yes, Undergraduate studies","N/A","n/A","N/A","4","0","3","1","4","0.516666666","stim/H010.jpg","76","76","0.5","3","1","3","","3","3","2","2","2","2","3","4","0","3","0","3","1","4","1","4","4","1","2","0","0","4","1","3","5","4","1","3","4","5","1","1","4","1","3","3","3","3","2","3","3","3","3","3","3","1","5","4","4","4","3","4","5","5","4","3","1","0","3","3","2","agree","null","","","","","","","","stim/H100.jpg","null","","",""
"html-keyboard-response","77","428715","0.0-11.0-1.21","lxdk9vhv980v97p","1","60cb78a6d16b4828beb5cbb7","23","07/1998","Single","English","none","Male","White or Caucasian","No","High School","Yes, Undergraduate studies","N/A","n/A","N/A","4","0","3","1","4","0.516666666","stim/H010.jpg","76","76","0.5","3","1","3","","3","3","2","2","2","2","3","4","0","3","0","3","1","4","1","4","4","1","2","0","0","4","1","3","5","4","1","3","4","5","1","1","4","1","3","3","3","3","2","3","3","3","3","3","3","1","5","4","4","4","3","4","5","5","4","3","1","0","3","3","2","agree","174.59999999962747","","","","","","","","<div style=""font-size:60px;"">?</div>","76","22","1","0.8"
"image-keyboard-response","78","429724","0.0-11.0-0.22","lxdk9vhv980v97p","1","60cb78a6d16b4828beb5cbb7","23","07/1998","Single","English","none","Male","White or Caucasian","No","High School","Yes, Undergraduate studies","N/A","n/A","N/A","4","0","3","1","4","0.516666666","stim/H010.jpg","76","76","0.5","3","1","3","","3","3","2","2","2","2","3","4","0","3","0","3","1","4","1","4","4","1","2","0","0","4","1","3","5","4","1","3","4","5","1","1","4","1","3","3","3","3","2","3","3","3","3","3","3","1","5","4","4","4","3","4","5","5","4","3","1","0","3","3","2","agree","null","","","","","","","","stim/H240.jpg","null","","",""
"html-keyboard-response","79","429994","0.0-11.0-1.22","lxdk9vhv980v97p","1","60cb78a6d16b4828beb5cbb7","23","07/1998","Single","English","none","Male","White or Caucasian","No","High School","Yes, Undergraduate studies","N/A","n/A","N/A","4","0","3","1","4","0.516666666","stim/H010.jpg","76","76","0.5","3","1","3","","3","3","2","2","2","2","3","4","0","3","0","3","1","4","1","4","4","1","2","0","0","4","1","3","5","4","1","3","4","5","1","1","4","1","3","3","3","3","2","3","3","3","3","3","3","1","5","4","4","4","3","4","5","5","4","3","1","0","3","3","2","agree","269.6000000014901","","","","","","","","<div style=""font-size:60px;"">?</div>","76","23","1","0.8"
"image-keyboard-response","80","431009","0.0-11.0-0.23","lxdk9vhv980v97p","1","60cb78a6d16b4828beb5cbb7","23","07/1998","Single","English","none","Male","White or Caucasian","No","High School","Yes, Undergraduate studies","N/A","n/A","N/A","4","0","3","1","4","0.516666666","stim/H010.jpg","76","76","0.5","3","1","3","","3","3","2","2","2","2","3","4","0","3","0","3","1","4","1","4","4","1","2","0","0","4","1","3","5","4","1","3","4","5","1","1","4","1","3","3","3","3","2","3","3","3","3","3","3","1","5","4","4","4","3","4","5","5","4","3","1","0","3","3","2","agree","null","","","","","","","","stim/H160.jpg","null","","",""
"html-keyboard-response","81","431275","0.0-11.0-1.23","lxdk9vhv980v97p","1","60cb78a6d16b4828beb5cbb7","23","07/1998","Single","English","none","Male","White or Caucasian","No","High School","Yes, Undergraduate studies","N/A","n/A","N/A","4","0","3","1","4","0.516666666","stim/H010.jpg","76","76","0.5","3","1","3","","3","3","2","2","2","2","3","4","0","3","0","3","1","4","1","4","4","1","2","0","0","4","1","3","5","4","1","3","4","5","1","1","4","1","3","3","3","3","2","3","3","3","3","3","3","1","5","4","4","4","3","4","5","5","4","3","1","0","3","3","2","agree","265","","","","","","","","<div style=""font-size:60px;"">?</div>","76","24","1","0.8"
"image-keyboard-response","82","432292","0.0-11.0-0.24","lxdk9vhv980v97p","1","60cb78a6d16b4828beb5cbb7","23","07/1998","Single","English","none","Male","White or Caucasian","No","High School","Yes, Undergraduate studies","N/A","n/A","N/A","4","0","3","1","4","0.516666666","stim/H010.jpg","76","76","0.5","3","1","3","","3","3","2","2","2","2","3","4","0","3","0","3","1","4","1","4","4","1","2","0","0","4","1","3","5","4","1","3","4","5","1","1","4","1","3","3","3","3","2","3","3","3","3","3","3","1","5","4","4","4","3","4","5","5","4","3","1","0","3","3","2","agree","null","","","","","","","","stim/T150.jpg","null","","",""
"html-keyboard-response","83","432490","0.0-11.0-1.24","lxdk9vhv980v97p","1","60cb78a6d16b4828beb5cbb7","23","07/1998","Single","English","none","Male","White or Caucasian","No","High School","Yes, Undergraduate studies","N/A","n/A","N/A","4","0","3","1","4","0.516666666","stim/H010.jpg","76","76","0.5","3","1","3","","3","3","2","2","2","2","3","4","0","3","0","3","1","4","1","4","4","1","2","0","0","4","1","3","5","4","1","3","4","5","1","1","4","1","3","3","3","3","2","3","3","3","3","3","3","1","5","4","4","4","3","4","5","5","4","3","1","0","3","3","2","agree","197.40000000037253","","","","","","","","<div style=""font-size:60px;"">?</div>","65","25","1","0.8"
"image-keyboard-response","84","433495","0.0-11.0-0.25","lxdk9vhv980v97p","1","60cb78a6d16b4828beb5cbb7","23","07/1998","Single","English","none","Male","White or Caucasian","No","High School","Yes, Undergraduate studies","N/A","n/A","N/A","4","0","3","1","4","0.516666666","stim/H010.jpg","76","76","0.5","3","1","3","","3","3","2","2","2","2","3","4","0","3","0","3","1","4","1","4","4","1","2","0","0","4","1","3","5","4","1","3","4","5","1","1","4","1","3","3","3","3","2","3","3","3","3","3","3","1","5","4","4","4","3","4","5","5","4","3","1","0","3","3","2","agree","null","","","","","","","","stim/H270.jpg","null","","",""
"html-keyboard-response","85","433690","0.0-11.0-1.25","lxdk9vhv980v97p","1","60cb78a6d16b4828beb5cbb7","23","07/1998","Single","English","none","Male","White or Caucasian","No","High School","Yes, Undergraduate studies","N/A","n/A","N/A","4","0","3","1","4","0.516666666","stim/H010.jpg","76","76","0.5","3","1","3","","3","3","2","2","2","2","3","4","0","3","0","3","1","4","1","4","4","1","2","0","0","4","1","3","5","4","1","3","4","5","1","1","4","1","3","3","3","3","2","3","3","3","3","3","3","1","5","4","4","4","3","4","5","5","4","3","1","0","3","3","2","agree","194.5","","","","","","","","<div style=""font-size:60px;"">?</div>","76","26","1","0.8"
"image-keyboard-response","86","434695","0.0-11.0-0.26","lxdk9vhv980v97p","1","60cb78a6d16b4828beb5cbb7","23","07/1998","Single","English","none","Male","White or Caucasian","No","High School","Yes, Undergraduate studies","N/A","n/A","N/A","4","0","3","1","4","0.516666666","stim/H010.jpg","76","76","0.5","3","1","3","","3","3","2","2","2","2","3","4","0","3","0","3","1","4","1","4","4","1","2","0","0","4","1","3","5","4","1","3","4","5","1","1","4","1","3","3","3","3","2","3","3","3","3","3","3","1","5","4","4","4","3","4","5","5","4","3","1","0","3","3","2","agree","null","","","","","","","","stim/T230.jpg","null","","",""
"html-keyboard-response","87","435218","0.0-11.0-1.26","lxdk9vhv980v97p","1","60cb78a6d16b4828beb5cbb7","23","07/1998","Single","English","none","Male","White or Caucasian","No","High School","Yes, Undergraduate studies","N/A","n/A","N/A","4","0","3","1","4","0.516666666","stim/H010.jpg","76","76","0.5","3","1","3","","3","3","2","2","2","2","3","4","0","3","0","3","1","4","1","4","4","1","2","0","0","4","1","3","5","4","1","3","4","5","1","1","4","1","3","3","3","3","2","3","3","3","3","3","3","1","5","4","4","4","3","4","5","5","4","3","1","0","3","3","2","agree","522.2999999988824","","","","","","","","<div style=""font-size:60px;"">?</div>","65","27","1","0.8"
"image-keyboard-response","88","436243","0.0-11.0-0.27","lxdk9vhv980v97p","1","60cb78a6d16b4828beb5cbb7","23","07/1998","Single","English","none","Male","White or Caucasian","No","High School","Yes, Undergraduate studies","N/A","n/A","N/A","4","0","3","1","4","0.516666666","stim/H010.jpg","76","76","0.5","3","1","3","","3","3","2","2","2","2","3","4","0","3","0","3","1","4","1","4","4","1","2","0","0","4","1","3","5","4","1","3","4","5","1","1","4","1","3","3","3","3","2","3","3","3","3","3","3","1","5","4","4","4","3","4","5","5","4","3","1","0","3","3","2","agree","null","","","","","","","","stim/H200.jpg","null","","",""
"html-keyboard-response","89","436482","0.0-11.0-1.27","lxdk9vhv980v97p","1","60cb78a6d16b4828beb5cbb7","23","07/1998","Single","English","none","Male","White or Caucasian","No","High School","Yes, Undergraduate studies","N/A","n/A","N/A","4","0","3","1","4","0.516666666","stim/H010.jpg","76","76","0.5","3","1","3","","3","3","2","2","2","2","3","4","0","3","0","3","1","4","1","4","4","1","2","0","0","4","1","3","5","4","1","3","4","5","1","1","4","1","3","3","3","3","2","3","3","3","3","3","3","1","5","4","4","4","3","4","5","5","4","3","1","0","3","3","2","agree","238.30000000074506","","","","","","","","<div style=""font-size:60px;"">?</div>","76","28","1","0.8"
"image-keyboard-response","90","437499","0.0-11.0-0.28","lxdk9vhv980v97p","1","60cb78a6d16b4828beb5cbb7","23","07/1998","Single","English","none","Male","White or Caucasian","No","High School","Yes, Undergraduate studies","N/A","n/A","N/A","4","0","3","1","4","0.516666666","stim/H010.jpg","76","76","0.5","3","1","3","","3","3","2","2","2","2","3","4","0","3","0","3","1","4","1","4","4","1","2","0","0","4","1","3","5","4","1","3","4","5","1","1","4","1","3","3","3","3","2","3","3","3","3","3","3","1","5","4","4","4","3","4","5","5","4","3","1","0","3","3","2","agree","null","","","","","","","","stim/H020.jpg","null","","",""
"html-keyboard-response","91","437842","0.0-11.0-1.28","lxdk9vhv980v97p","1","60cb78a6d16b4828beb5cbb7","23","07/1998","Single","English","none","Male","White or Caucasian","No","High School","Yes, Undergraduate studies","N/A","n/A","N/A","4","0","3","1","4","0.516666666","stim/H010.jpg","76","76","0.5","3","1","3","","3","3","2","2","2","2","3","4","0","3","0","3","1","4","1","4","4","1","2","0","0","4","1","3","5","4","1","3","4","5","1","1","4","1","3","3","3","3","2","3","3","3","3","3","3","1","5","4","4","4","3","4","5","5","4","3","1","0","3","3","2","agree","342.80000000074506","","","","","","","","<div style=""font-size:60px;"">?</div>","76","29","1","0.8"
"image-keyboard-response","92","438864","0.0-11.0-0.29","lxdk9vhv980v97p","1","60cb78a6d16b4828beb5cbb7","23","07/1998","Single","English","none","Male","White or Caucasian","No","High School","Yes, Undergraduate studies","N/A","n/A","N/A","4","0","3","1","4","0.516666666","stim/H010.jpg","76","76","0.5","3","1","3","","3","3","2","2","2","2","3","4","0","3","0","3","1","4","1","4","4","1","2","0","0","4","1","3","5","4","1","3","4","5","1","1","4","1","3","3","3","3","2","3","3","3","3","3","3","1","5","4","4","4","3","4","5","5","4","3","1","0","3","3","2","agree","null","","","","","","","","stim/H190.jpg","null","","",""
"html-keyboard-response","93","439208","0.0-11.0-1.29","lxdk9vhv980v97p","1","60cb78a6d16b4828beb5cbb7","23","07/1998","Single","English","none","Male","White or Caucasian","No","High School","Yes, Undergraduate studies","N/A","n/A","N/A","4","0","3","1","4","0.516666666","stim/H010.jpg","76","76","0.5","3","1","3","","3","3","2","2","2","2","3","4","0","3","0","3","1","4","1","4","4","1","2","0","0","4","1","3","5","4","1","3","4","5","1","1","4","1","3","3","3","3","2","3","3","3","3","3","3","1","5","4","4","4","3","4","5","5","4","3","1","0","3","3","2","agree","343.09999999962747","","","","","","","","<div style=""font-size:60px;"">?</div>","76","30","1","0.8"
"image-keyboard-response","94","440235","0.0-11.0-0.30","lxdk9vhv980v97p","1","60cb78a6d16b4828beb5cbb7","23","07/1998","Single","English","none","Male","White or Caucasian","No","High School","Yes, Undergraduate studies","N/A","n/A","N/A","4","0","3","1","4","0.516666666","stim/H010.jpg","76","76","0.5","3","1","3","","3","3","2","2","2","2","3","4","0","3","0","3","1","4","1","4","4","1","2","0","0","4","1","3","5","4","1","3","4","5","1","1","4","1","3","3","3","3","2","3","3","3","3","3","3","1","5","4","4","4","3","4","5","5","4","3","1","0","3","3","2","agree","null","","","","","","","","stim/T240.jpg","null","","",""
"html-keyboard-response","95","440450","0.0-11.0-1.30","lxdk9vhv980v97p","1","60cb78a6d16b4828beb5cbb7","23","07/1998","Single","English","none","Male","White or Caucasian","No","High School","Yes, Undergraduate studies","N/A","n/A","N/A","4","0","3","1","4","0.516666666","stim/H010.jpg","76","76","0.5","3","1","3","","3","3","2","2","2","2","3","4","0","3","0","3","1","4","1","4","4","1","2","0","0","4","1","3","5","4","1","3","4","5","1","1","4","1","3","3","3","3","2","3","3","3","3","3","3","1","5","4","4","4","3","4","5","5","4","3","1","0","3","3","2","agree","214.59999999962747","","","","","","","","<div style=""font-size:60px;"">?</div>","65","31","1","0.8"
"image-keyboard-response","96","441469","0.0-11.0-0.31","lxdk9vhv980v97p","1","60cb78a6d16b4828beb5cbb7","23","07/1998","Single","English","none","Male","White or Caucasian","No","High School","Yes, Undergraduate studies","N/A","n/A","N/A","4","0","3","1","4","0.516666666","stim/H010.jpg","76","76","0.5","3","1","3","","3","3","2","2","2","2","3","4","0","3","0","3","1","4","1","4","4","1","2","0","0","4","1","3","5","4","1","3","4","5","1","1","4","1","3","3","3","3","2","3","3","3","3","3","3","1","5","4","4","4","3","4","5","5","4","3","1","0","3","3","2","agree","null","","","","","","","","stim/H220.jpg","null","","",""
"html-keyboard-response","97","441650","0.0-11.0-1.31","lxdk9vhv980v97p","1","60cb78a6d16b4828beb5cbb7","23","07/1998","Single","English","none","Male","White or Caucasian","No","High School","Yes, Undergraduate studies","N/A","n/A","N/A","4","0","3","1","4","0.516666666","stim/H010.jpg","76","76","0.5","3","1","3","","3","3","2","2","2","2","3","4","0","3","0","3","1","4","1","4","4","1","2","0","0","4","1","3","5","4","1","3","4","5","1","1","4","1","3","3","3","3","2","3","3","3","3","3","3","1","5","4","4","4","3","4","5","5","4","3","1","0","3","3","2","agree","181.09999999962747","","","","","","","","<div style=""font-size:60px;"">?</div>","76","32","1","0.8"
"image-keyboard-response","98","442668","0.0-11.0-0.32","lxdk9vhv980v97p","1","60cb78a6d16b4828beb5cbb7","23","07/1998","Single","English","none","Male","White or Caucasian","No","High School","Yes, Undergraduate studies","N/A","n/A","N/A","4","0","3","1","4","0.516666666","stim/H010.jpg","76","76","0.5","3","1","3","","3","3","2","2","2","2","3","4","0","3","0","3","1","4","1","4","4","1","2","0","0","4","1","3","5","4","1","3","4","5","1","1","4","1","3","3","3","3","2","3","3","3","3","3","3","1","5","4","4","4","3","4","5","5","4","3","1","0","3","3","2","agree","null","","","","","","","","stim/H220.jpg","null","","",""
"html-keyboard-response","99","442890","0.0-11.0-1.32","lxdk9vhv980v97p","1","60cb78a6d16b4828beb5cbb7","23","07/1998","Single","English","none","Male","White or Caucasian","No","High School","Yes, Undergraduate studies","N/A","n/A","N/A","4","0","3","1","4","0.516666666","stim/H010.jpg","76","76","0.5","3","1","3","","3","3","2","2","2","2","3","4","0","3","0","3","1","4","1","4","4","1","2","0","0","4","1","3","5","4","1","3","4","5","1","1","4","1","3","3","3","3","2","3","3","3","3","3","3","1","5","4","4","4","3","4","5","5","4","3","1","0","3","3","2","agree","221.80000000074506","","","","","","","","<div style=""font-size:60px;"">?</div>","76","33","1","0.8"
"image-keyboard-response","100","443917","0.0-11.0-0.33","lxdk9vhv980v97p","1","60cb78a6d16b4828beb5cbb7","23","07/1998","Single","English","none","Male","White or Caucasian","No","High School","Yes, Undergraduate studies","N/A","n/A","N/A","4","0","3","1","4","0.516666666","stim/H010.jpg","76","76","0.5","3","1","3","","3","3","2","2","2","2","3","4","0","3","0","3","1","4","1","4","4","1","2","0","0","4","1","3","5","4","1","3","4","5","1","1","4","1","3","3","3","3","2","3","3","3","3","3","3","1","5","4","4","4","3","4","5","5","4","3","1","0","3","3","2","agree","null","","","","","","","","stim/H110.jpg","null","","",""
"html-keyboard-response","101","444162","0.0-11.0-1.33","lxdk9vhv980v97p","1","60cb78a6d16b4828beb5cbb7","23","07/1998","Single","English","none","Male","White or Caucasian","No","High School","Yes, Undergraduate studies","N/A","n/A","N/A","4","0","3","1","4","0.516666666","stim/H010.jpg","76","76","0.5","3","1","3","","3","3","2","2","2","2","3","4","0","3","0","3","1","4","1","4","4","1","2","0","0","4","1","3","5","4","1","3","4","5","1","1","4","1","3","3","3","3","2","3","3","3","3","3","3","1","5","4","4","4","3","4","5","5","4","3","1","0","3","3","2","agree","244.69999999925494","","","","","","","","<div style=""font-size:60px;"">?</div>","76","34","1","0.8"
"image-keyboard-response","102","445187","0.0-11.0-0.34","lxdk9vhv980v97p","1","60cb78a6d16b4828beb5cbb7","23","07/1998","Single","English","none","Male","White or Caucasian","No","High School","Yes, Undergraduate studies","N/A","n/A","N/A","4","0","3","1","4","0.516666666","stim/H010.jpg","76","76","0.5","3","1","3","","3","3","2","2","2","2","3","4","0","3","0","3","1","4","1","4","4","1","2","0","0","4","1","3","5","4","1","3","4","5","1","1","4","1","3","3","3","3","2","3","3","3","3","3","3","1","5","4","4","4","3","4","5","5","4","3","1","0","3","3","2","agree","null","","","","","","","","stim/H120.jpg","null","","",""
"html-keyboard-response","103","445362","0.0-11.0-1.34","lxdk9vhv980v97p","1","60cb78a6d16b4828beb5cbb7","23","07/1998","Single","English","none","Male","White or Caucasian","No","High School","Yes, Undergraduate studies","N/A","n/A","N/A","4","0","3","1","4","0.516666666","stim/H010.jpg","76","76","0.5","3","1","3","","3","3","2","2","2","2","3","4","0","3","0","3","1","4","1","4","4","1","2","0","0","4","1","3","5","4","1","3","4","5","1","1","4","1","3","3","3","3","2","3","3","3","3","3","3","1","5","4","4","4","3","4","5","5","4","3","1","0","3","3","2","agree","174","","","","","","","","<div style=""font-size:60px;"">?</div>","76","35","1","0.8"
"image-keyboard-response","104","446372","0.0-11.0-0.35","lxdk9vhv980v97p","1","60cb78a6d16b4828beb5cbb7","23","07/1998","Single","English","none","Male","White or Caucasian","No","High School","Yes, Undergraduate studies","N/A","n/A","N/A","4","0","3","1","4","0.516666666","stim/H010.jpg","76","76","0.5","3","1","3","","3","3","2","2","2","2","3","4","0","3","0","3","1","4","1","4","4","1","2","0","0","4","1","3","5","4","1","3","4","5","1","1","4","1","3","3","3","3","2","3","3","3","3","3","3","1","5","4","4","4","3","4","5","5","4","3","1","0","3","3","2","agree","null","","","","","","","","stim/H030.jpg","null","","",""
"html-keyboard-response","105","446666","0.0-11.0-1.35","lxdk9vhv980v97p","1","60cb78a6d16b4828beb5cbb7","23","07/1998","Single","English","none","Male","White or Caucasian","No","High School","Yes, Undergraduate studies","N/A","n/A","N/A","4","0","3","1","4","0.516666666","stim/H010.jpg","76","76","0.5","3","1","3","","3","3","2","2","2","2","3","4","0","3","0","3","1","4","1","4","4","1","2","0","0","4","1","3","5","4","1","3","4","5","1","1","4","1","3","3","3","3","2","3","3","3","3","3","3","1","5","4","4","4","3","4","5","5","4","3","1","0","3","3","2","agree","293.59999999962747","","","","","","","","<div style=""font-size:60px;"">?</div>","76","36","1","0.8"
"image-keyboard-response","106","447674","0.0-11.0-0.36","lxdk9vhv980v97p","1","60cb78a6d16b4828beb5cbb7","23","07/1998","Single","English","none","Male","White or Caucasian","No","High School","Yes, Undergraduate studies","N/A","n/A","N/A","4","0","3","1","4","0.516666666","stim/H010.jpg","76","76","0.5","3","1","3","","3","3","2","2","2","2","3","4","0","3","0","3","1","4","1","4","4","1","2","0","0","4","1","3","5","4","1","3","4","5","1","1","4","1","3","3","3","3","2","3","3","3","3","3","3","1","5","4","4","4","3","4","5","5","4","3","1","0","3","3","2","agree","null","","","","","","","","stim/T220.jpg","null","","",""
"html-keyboard-response","107","447850","0.0-11.0-1.36","lxdk9vhv980v97p","1","60cb78a6d16b4828beb5cbb7","23","07/1998","Single","English","none","Male","White or Caucasian","No","High School","Yes, Undergraduate studies","N/A","n/A","N/A","4","0","3","1","4","0.516666666","stim/H010.jpg","76","76","0.5","3","1","3","","3","3","2","2","2","2","3","4","0","3","0","3","1","4","1","4","4","1","2","0","0","4","1","3","5","4","1","3","4","5","1","1","4","1","3","3","3","3","2","3","3","3","3","3","3","1","5","4","4","4","3","4","5","5","4","3","1","0","3","3","2","agree","176","","","","","","","","<div style=""font-size:60px;"">?</div>","65","37","1","0.8"
"image-keyboard-response","108","448860","0.0-11.0-0.37","lxdk9vhv980v97p","1","60cb78a6d16b4828beb5cbb7","23","07/1998","Single","English","none","Male","White or Caucasian","No","High School","Yes, Undergraduate studies","N/A","n/A","N/A","4","0","3","1","4","0.516666666","stim/H010.jpg","76","76","0.5","3","1","3","","3","3","2","2","2","2","3","4","0","3","0","3","1","4","1","4","4","1","2","0","0","4","1","3","5","4","1","3","4","5","1","1","4","1","3","3","3","3","2","3","3","3","3","3","3","1","5","4","4","4","3","4","5","5","4","3","1","0","3","3","2","agree","null","","","","","","","","stim/H150.jpg","null","","",""
"html-keyboard-response","109","449050","0.0-11.0-1.37","lxdk9vhv980v97p","1","60cb78a6d16b4828beb5cbb7","23","07/1998","Single","English","none","Male","White or Caucasian","No","High School","Yes, Undergraduate studies","N/A","n/A","N/A","4","0","3","1","4","0.516666666","stim/H010.jpg","76","76","0.5","3","1","3","","3","3","2","2","2","2","3","4","0","3","0","3","1","4","1","4","4","1","2","0","0","4","1","3","5","4","1","3","4","5","1","1","4","1","3","3","3","3","2","3","3","3","3","3","3","1","5","4","4","4","3","4","5","5","4","3","1","0","3","3","2","agree","189.59999999962747","","","","","","","","<div style=""font-size:60px;"">?</div>","76","38","1","0.8"
"image-keyboard-response","110","450072","0.0-11.0-0.38","lxdk9vhv980v97p","1","60cb78a6d16b4828beb5cbb7","23","07/1998","Single","English","none","Male","White or Caucasian","No","High School","Yes, Undergraduate studies","N/A","n/A","N/A","4","0","3","1","4","0.516666666","stim/H010.jpg","76","76","0.5","3","1","3","","3","3","2","2","2","2","3","4","0","3","0","3","1","4","1","4","4","1","2","0","0","4","1","3","5","4","1","3","4","5","1","1","4","1","3","3","3","3","2","3","3","3","3","3","3","1","5","4","4","4","3","4","5","5","4","3","1","0","3","3","2","agree","null","","","","","","","","stim/T040.jpg","null","","",""
"html-keyboard-response","111","450314","0.0-11.0-1.38","lxdk9vhv980v97p","1","60cb78a6d16b4828beb5cbb7","23","07/1998","Single","English","none","Male","White or Caucasian","No","High School","Yes, Undergraduate studies","N/A","n/A","N/A","4","0","3","1","4","0.516666666","stim/H010.jpg","76","76","0.5","3","1","3","","3","3","2","2","2","2","3","4","0","3","0","3","1","4","1","4","4","1","2","0","0","4","1","3","5","4","1","3","4","5","1","1","4","1","3","3","3","3","2","3","3","3","3","3","3","1","5","4","4","4","3","4","5","5","4","3","1","0","3","3","2","agree","241.30000000074506","","","","","","","","<div style=""font-size:60px;"">?</div>","65","39","1","0.8"
"image-keyboard-response","112","451342","0.0-11.0-0.39","lxdk9vhv980v97p","1","60cb78a6d16b4828beb5cbb7","23","07/1998","Single","English","none","Male","White or Caucasian","No","High School","Yes, Undergraduate studies","N/A","n/A","N/A","4","0","3","1","4","0.516666666","stim/H010.jpg","76","76","0.5","3","1","3","","3","3","2","2","2","2","3","4","0","3","0","3","1","4","1","4","4","1","2","0","0","4","1","3","5","4","1","3","4","5","1","1","4","1","3","3","3","3","2","3","3","3","3","3","3","1","5","4","4","4","3","4","5","5","4","3","1","0","3","3","2","agree","null","","","","","","","","stim/H280.jpg","null","","",""
"html-keyboard-response","113","451610","0.0-11.0-1.39","lxdk9vhv980v97p","1","60cb78a6d16b4828beb5cbb7","23","07/1998","Single","English","none","Male","White or Caucasian","No","High School","Yes, Undergraduate studies","N/A","n/A","N/A","4","0","3","1","4","0.516666666","stim/H010.jpg","76","76","0.5","3","1","3","","3","3","2","2","2","2","3","4","0","3","0","3","1","4","1","4","4","1","2","0","0","4","1","3","5","4","1","3","4","5","1","1","4","1","3","3","3","3","2","3","3","3","3","3","3","1","5","4","4","4","3","4","5","5","4","3","1","0","3","3","2","agree","267.90000000037253","","","","","","","","<div style=""font-size:60px;"">?</div>","76","40","1","0.8"
"image-keyboard-response","114","452627","0.0-11.0-0.40","lxdk9vhv980v97p","1","60cb78a6d16b4828beb5cbb7","23","07/1998","Single","English","none","Male","White or Caucasian","No","High School","Yes, Undergraduate studies","N/A","n/A","N/A","4","0","3","1","4","0.516666666","stim/H010.jpg","76","76","0.5","3","1","3","","3","3","2","2","2","2","3","4","0","3","0","3","1","4","1","4","4","1","2","0","0","4","1","3","5","4","1","3","4","5","1","1","4","1","3","3","3","3","2","3","3","3","3","3","3","1","5","4","4","4","3","4","5","5","4","3","1","0","3","3","2","agree","null","","","","","","","","stim/H090.jpg","null","","",""
"html-keyboard-response","115","452946","0.0-11.0-1.40","lxdk9vhv980v97p","1","60cb78a6d16b4828beb5cbb7","23","07/1998","Single","English","none","Male","White or Caucasian","No","High School","Yes, Undergraduate studies","N/A","n/A","N/A","4","0","3","1","4","0.516666666","stim/H010.jpg","76","76","0.5","3","1","3","","3","3","2","2","2","2","3","4","0","3","0","3","1","4","1","4","4","1","2","0","0","4","1","3","5","4","1","3","4","5","1","1","4","1","3","3","3","3","2","3","3","3","3","3","3","1","5","4","4","4","3","4","5","5","4","3","1","0","3","3","2","agree","318.19999999925494","","","","","","","","<div style=""font-size:60px;"">?</div>","76","41","1","0.8"
"image-keyboard-response","116","453978","0.0-11.0-0.41","lxdk9vhv980v97p","1","60cb78a6d16b4828beb5cbb7","23","07/1998","Single","English","none","Male","White or Caucasian","No","High School","Yes, Undergraduate studies","N/A","n/A","N/A","4","0","3","1","4","0.516666666","stim/H010.jpg","76","76","0.5","3","1","3","","3","3","2","2","2","2","3","4","0","3","0","3","1","4","1","4","4","1","2","0","0","4","1","3","5","4","1","3","4","5","1","1","4","1","3","3","3","3","2","3","3","3","3","3","3","1","5","4","4","4","3","4","5","5","4","3","1","0","3","3","2","agree","null","","","","","","","","stim/T240.jpg","null","","",""
"html-keyboard-response","117","454099","0.0-11.0-1.41","lxdk9vhv980v97p","1","60cb78a6d16b4828beb5cbb7","23","07/1998","Single","English","none","Male","White or Caucasian","No","High School","Yes, Undergraduate studies","N/A","n/A","N/A","4","0","3","1","4","0.516666666","stim/H010.jpg","76","76","0.5","3","1","3","","3","3","2","2","2","2","3","4","0","3","0","3","1","4","1","4","4","1","2","0","0","4","1","3","5","4","1","3","4","5","1","1","4","1","3","3","3","3","2","3","3","3","3","3","3","1","5","4","4","4","3","4","5","5","4","3","1","0","3","3","2","agree","120","","","","","","","","<div style=""font-size:60px;"">?</div>","65","42","1","0.8"
"image-keyboard-response","118","455112","0.0-11.0-0.42","lxdk9vhv980v97p","1","60cb78a6d16b4828beb5cbb7","23","07/1998","Single","English","none","Male","White or Caucasian","No","High School","Yes, Undergraduate studies","N/A","n/A","N/A","4","0","3","1","4","0.516666666","stim/H010.jpg","76","76","0.5","3","1","3","","3","3","2","2","2","2","3","4","0","3","0","3","1","4","1","4","4","1","2","0","0","4","1","3","5","4","1","3","4","5","1","1","4","1","3","3","3","3","2","3","3","3","3","3","3","1","5","4","4","4","3","4","5","5","4","3","1","0","3","3","2","agree","null","","","","","","","","stim/H170.jpg","null","","",""
"html-keyboard-response","119","455242","0.0-11.0-1.42","lxdk9vhv980v97p","1","60cb78a6d16b4828beb5cbb7","23","07/1998","Single","English","none","Male","White or Caucasian","No","High School","Yes, Undergraduate studies","N/A","n/A","N/A","4","0","3","1","4","0.516666666","stim/H010.jpg","76","76","0.5","3","1","3","","3","3","2","2","2","2","3","4","0","3","0","3","1","4","1","4","4","1","2","0","0","4","1","3","5","4","1","3","4","5","1","1","4","1","3","3","3","3","2","3","3","3","3","3","3","1","5","4","4","4","3","4","5","5","4","3","1","0","3","3","2","agree","128.7999999988824","","","","","","","","<div style=""font-size:60px;"">?</div>","76","43","1","0.8"
"image-keyboard-response","120","456264","0.0-11.0-0.43","lxdk9vhv980v97p","1","60cb78a6d16b4828beb5cbb7","23","07/1998","Single","English","none","Male","White or Caucasian","No","High School","Yes, Undergraduate studies","N/A","n/A","N/A","4","0","3","1","4","0.516666666","stim/H010.jpg","76","76","0.5","3","1","3","","3","3","2","2","2","2","3","4","0","3","0","3","1","4","1","4","4","1","2","0","0","4","1","3","5","4","1","3","4","5","1","1","4","1","3","3","3","3","2","3","3","3","3","3","3","1","5","4","4","4","3","4","5","5","4","3","1","0","3","3","2","agree","null","","","","","","","","stim/H190.jpg","null","","",""
"html-keyboard-response","121","456530","0.0-11.0-1.43","lxdk9vhv980v97p","1","60cb78a6d16b4828beb5cbb7","23","07/1998","Single","English","none","Male","White or Caucasian","No","High School","Yes, Undergraduate studies","N/A","n/A","N/A","4","0","3","1","4","0.516666666","stim/H010.jpg","76","76","0.5","3","1","3","","3","3","2","2","2","2","3","4","0","3","0","3","1","4","1","4","4","1","2","0","0","4","1","3","5","4","1","3","4","5","1","1","4","1","3","3","3","3","2","3","3","3","3","3","3","1","5","4","4","4","3","4","5","5","4","3","1","0","3","3","2","agree","265.40000000037253","","","","","","","","<div style=""font-size:60px;"">?</div>","76","44","1","0.8"
"image-keyboard-response","122","457547","0.0-11.0-0.44","lxdk9vhv980v97p","1","60cb78a6d16b4828beb5cbb7","23","07/1998","Single","English","none","Male","White or Caucasian","No","High School","Yes, Undergraduate studies","N/A","n/A","N/A","4","0","3","1","4","0.516666666","stim/H010.jpg","76","76","0.5","3","1","3","","3","3","2","2","2","2","3","4","0","3","0","3","1","4","1","4","4","1","2","0","0","4","1","3","5","4","1","3","4","5","1","1","4","1","3","3","3","3","2","3","3","3","3","3","3","1","5","4","4","4","3","4","5","5","4","3","1","0","3","3","2","agree","null","","","","","","","","stim/H190.jpg","null","","",""
"html-keyboard-response","123","457786","0.0-11.0-1.44","lxdk9vhv980v97p","1","60cb78a6d16b4828beb5cbb7","23","07/1998","Single","English","none","Male","White or Caucasian","No","High School","Yes, Undergraduate studies","N/A","n/A","N/A","4","0","3","1","4","0.516666666","stim/H010.jpg","76","76","0.5","3","1","3","","3","3","2","2","2","2","3","4","0","3","0","3","1","4","1","4","4","1","2","0","0","4","1","3","5","4","1","3","4","5","1","1","4","1","3","3","3","3","2","3","3","3","3","3","3","1","5","4","4","4","3","4","5","5","4","3","1","0","3","3","2","agree","238.69999999925494","","","","","","","","<div style=""font-size:60px;"">?</div>","76","45","1","0.8"
"image-keyboard-response","124","458815","0.0-11.0-0.45","lxdk9vhv980v97p","1","60cb78a6d16b4828beb5cbb7","23","07/1998","Single","English","none","Male","White or Caucasian","No","High School","Yes, Undergraduate studies","N/A","n/A","N/A","4","0","3","1","4","0.516666666","stim/H010.jpg","76","76","0.5","3","1","3","","3","3","2","2","2","2","3","4","0","3","0","3","1","4","1","4","4","1","2","0","0","4","1","3","5","4","1","3","4","5","1","1","4","1","3","3","3","3","2","3","3","3","3","3","3","1","5","4","4","4","3","4","5","5","4","3","1","0","3","3","2","agree","null","","","","","","","","stim/H180.jpg","null","","",""
"html-keyboard-response","125","458898","0.0-11.0-1.45","lxdk9vhv980v97p","1","60cb78a6d16b4828beb5cbb7","23","07/1998","Single","English","none","Male","White or Caucasian","No","High School","Yes, Undergraduate studies","N/A","n/A","N/A","4","0","3","1","4","0.516666666","stim/H010.jpg","76","76","0.5","3","1","3","","3","3","2","2","2","2","3","4","0","3","0","3","1","4","1","4","4","1","2","0","0","4","1","3","5","4","1","3","4","5","1","1","4","1","3","3","3","3","2","3","3","3","3","3","3","1","5","4","4","4","3","4","5","5","4","3","1","0","3","3","2","agree","82.39999999850988","","","","","","","","<div style=""font-size:60px;"">?</div>","76","46","1","0.8"
"image-keyboard-response","126","459918","0.0-11.0-0.46","lxdk9vhv980v97p","1","60cb78a6d16b4828beb5cbb7","23","07/1998","Single","English","none","Male","White or Caucasian","No","High School","Yes, Undergraduate studies","N/A","n/A","N/A","4","0","3","1","4","0.516666666","stim/H010.jpg","76","76","0.5","3","1","3","","3","3","2","2","2","2","3","4","0","3","0","3","1","4","1","4","4","1","2","0","0","4","1","3","5","4","1","3","4","5","1","1","4","1","3","3","3","3","2","3","3","3","3","3","3","1","5","4","4","4","3","4","5","5","4","3","1","0","3","3","2","agree","null","","","","","","","","stim/T050.jpg","null","","",""
"html-keyboard-response","127","460194","0.0-11.0-1.46","lxdk9vhv980v97p","1","60cb78a6d16b4828beb5cbb7","23","07/1998","Single","English","none","Male","White or Caucasian","No","High School","Yes, Undergraduate studies","N/A","n/A","N/A","4","0","3","1","4","0.516666666","stim/H010.jpg","76","76","0.5","3","1","3","","3","3","2","2","2","2","3","4","0","3","0","3","1","4","1","4","4","1","2","0","0","4","1","3","5","4","1","3","4","5","1","1","4","1","3","3","3","3","2","3","3","3","3","3","3","1","5","4","4","4","3","4","5","5","4","3","1","0","3","3","2","agree","275.59999999962747","","","","","","","","<div style=""font-size:60px;"">?</div>","65","47","1","0.8"
"image-keyboard-response","128","461218","0.0-11.0-0.47","lxdk9vhv980v97p","1","60cb78a6d16b4828beb5cbb7","23","07/1998","Single","English","none","Male","White or Caucasian","No","High School","Yes, Undergraduate studies","N/A","n/A","N/A","4","0","3","1","4","0.516666666","stim/H010.jpg","76","76","0.5","3","1","3","","3","3","2","2","2","2","3","4","0","3","0","3","1","4","1","4","4","1","2","0","0","4","1","3","5","4","1","3","4","5","1","1","4","1","3","3","3","3","2","3","3","3","3","3","3","1","5","4","4","4","3","4","5","5","4","3","1","0","3","3","2","agree","null","","","","","","","","stim/H200.jpg","null","","",""
"html-keyboard-response","129","461298","0.0-11.0-1.47","lxdk9vhv980v97p","1","60cb78a6d16b4828beb5cbb7","23","07/1998","Single","English","none","Male","White or Caucasian","No","High School","Yes, Undergraduate studies","N/A","n/A","N/A","4","0","3","1","4","0.516666666","stim/H010.jpg","76","76","0.5","3","1","3","","3","3","2","2","2","2","3","4","0","3","0","3","1","4","1","4","4","1","2","0","0","4","1","3","5","4","1","3","4","5","1","1","4","1","3","3","3","3","2","3","3","3","3","3","3","1","5","4","4","4","3","4","5","5","4","3","1","0","3","3","2","agree","79.79999999888241","","","","","","","","<div style=""font-size:60px;"">?</div>","76","48","1","0.8"
"image-keyboard-response","130","462303","0.0-11.0-0.48","lxdk9vhv980v97p","1","60cb78a6d16b4828beb5cbb7","23","07/1998","Single","English","none","Male","White or Caucasian","No","High School","Yes, Undergraduate studies","N/A","n/A","N/A","4","0","3","1","4","0.516666666","stim/H010.jpg","76","76","0.5","3","1","3","","3","3","2","2","2","2","3","4","0","3","0","3","1","4","1","4","4","1","2","0","0","4","1","3","5","4","1","3","4","5","1","1","4","1","3","3","3","3","2","3","3","3","3","3","3","1","5","4","4","4","3","4","5","5","4","3","1","0","3","3","2","agree","null","","","","","","","","stim/H290.jpg","null","","",""
"html-keyboard-response","131","462466","0.0-11.0-1.48","lxdk9vhv980v97p","1","60cb78a6d16b4828beb5cbb7","23","07/1998","Single","English","none","Male","White or Caucasian","No","High School","Yes, Undergraduate studies","N/A","n/A","N/A","4","0","3","1","4","0.516666666","stim/H010.jpg","76","76","0.5","3","1","3","","3","3","2","2","2","2","3","4","0","3","0","3","1","4","1","4","4","1","2","0","0","4","1","3","5","4","1","3","4","5","1","1","4","1","3","3","3","3","2","3","3","3","3","3","3","1","5","4","4","4","3","4","5","5","4","3","1","0","3","3","2","agree","162","","","","","","","","<div style=""font-size:60px;"">?</div>","76","49","1","0.8"
"image-keyboard-response","132","463472","0.0-11.0-0.49","lxdk9vhv980v97p","1","60cb78a6d16b4828beb5cbb7","23","07/1998","Single","English","none","Male","White or Caucasian","No","High School","Yes, Undergraduate studies","N/A","n/A","N/A","4","0","3","1","4","0.516666666","stim/H010.jpg","76","76","0.5","3","1","3","","3","3","2","2","2","2","3","4","0","3","0","3","1","4","1","4","4","1","2","0","0","4","1","3","5","4","1","3","4","5","1","1","4","1","3","3","3","3","2","3","3","3","3","3","3","1","5","4","4","4","3","4","5","5","4","3","1","0","3","3","2","agree","null","","","","","","","","stim/T290.jpg","null","","",""
"html-keyboard-response","133","463618","0.0-11.0-1.49","lxdk9vhv980v97p","1","60cb78a6d16b4828beb5cbb7","23","07/1998","Single","English","none","Male","White or Caucasian","No","High School","Yes, Undergraduate studies","N/A","n/A","N/A","4","0","3","1","4","0.516666666","stim/H010.jpg","76","76","0.5","3","1","3","","3","3","2","2","2","2","3","4","0","3","0","3","1","4","1","4","4","1","2","0","0","4","1","3","5","4","1","3","4","5","1","1","4","1","3","3","3","3","2","3","3","3","3","3","3","1","5","4","4","4","3","4","5","5","4","3","1","0","3","3","2","agree","145.59999999962747","","","","","","","","<div style=""font-size:60px;"">?</div>","65","50","1","0.8"
"html-keyboard-response","134","464954","0.0-12.0","lxdk9vhv980v97p","1","60cb78a6d16b4828beb5cbb7","23","07/1998","Single","English","none","Male","White or Caucasian","No","High School","Yes, Undergraduate studies","N/A","n/A","N/A","4","0","3","1","4","0.516666666","stim/H010.jpg","76","76","0.5","3","1","3","","3","3","2","2","2","2","3","4","0","3","0","3","1","4","1","4","4","1","2","0","0","4","1","3","5","4","1","3","4","5","1","1","4","1","3","3","3","3","2","3","3","3","3","3","3","1","5","4","4","4","3","4","5","5","4","3","1","0","3","3","2","agree","833.0999999996275","","","","","","","","<p>Block 2</p><p>Press SPACE to continue.</p>","32","","",""
"image-keyboard-response","135","466457","0.0-13.0-0.0","lxdk9vhv980v97p","1","60cb78a6d16b4828beb5cbb7","23","07/1998","Single","English","none","Male","White or Caucasian","No","High School","Yes, Undergraduate studies","N/A","n/A","N/A","4","0","3","1","4","0.516666666","stim/H010.jpg","76","76","0.5","3","1","3","","3","3","2","2","2","2","3","4","0","3","0","3","1","4","1","4","4","1","2","0","0","4","1","3","5","4","1","3","4","5","1","1","4","1","3","3","3","3","2","3","3","3","3","3","3","1","5","4","4","4","3","4","5","5","4","3","1","0","3","3","2","agree","null","","","","","","","","stim/H050.jpg","null","","",""
"html-keyboard-response","136","466810","0.0-13.0-1.0","lxdk9vhv980v97p","1","60cb78a6d16b4828beb5cbb7","23","07/1998","Single","English","none","Male","White or Caucasian","No","High School","Yes, Undergraduate studies","N/A","n/A","N/A","4","0","3","1","4","0.516666666","stim/H010.jpg","76","76","0.5","3","1","3","","3","3","2","2","2","2","3","4","0","3","0","3","1","4","1","4","4","1","2","0","0","4","1","3","5","4","1","3","4","5","1","1","4","1","3","3","3","3","2","3","3","3","3","3","3","1","5","4","4","4","3","4","5","5","4","3","1","0","3","3","2","agree","352.80000000074506","","","","","","","","<div style=""font-size:60px;"">?</div>","76","1","2","0.8"
"image-keyboard-response","137","467826","0.0-13.0-0.1","lxdk9vhv980v97p","1","60cb78a6d16b4828beb5cbb7","23","07/1998","Single","English","none","Male","White or Caucasian","No","High School","Yes, Undergraduate studies","N/A","n/A","N/A","4","0","3","1","4","0.516666666","stim/H010.jpg","76","76","0.5","3","1","3","","3","3","2","2","2","2","3","4","0","3","0","3","1","4","1","4","4","1","2","0","0","4","1","3","5","4","1","3","4","5","1","1","4","1","3","3","3","3","2","3","3","3","3","3","3","1","5","4","4","4","3","4","5","5","4","3","1","0","3","3","2","agree","null","","","","","","","","stim/H110.jpg","null","","",""
"html-keyboard-response","138","468026","0.0-13.0-1.1","lxdk9vhv980v97p","1","60cb78a6d16b4828beb5cbb7","23","07/1998","Single","English","none","Male","White or Caucasian","No","High School","Yes, Undergraduate studies","N/A","n/A","N/A","4","0","3","1","4","0.516666666","stim/H010.jpg","76","76","0.5","3","1","3","","3","3","2","2","2","2","3","4","0","3","0","3","1","4","1","4","4","1","2","0","0","4","1","3","5","4","1","3","4","5","1","1","4","1","3","3","3","3","2","3","3","3","3","3","3","1","5","4","4","4","3","4","5","5","4","3","1","0","3","3","2","agree","200","","","","","","","","<div style=""font-size:60px;"">?</div>","76","2","2","0.8"
"image-keyboard-response","139","469044","0.0-13.0-0.2","lxdk9vhv980v97p","1","60cb78a6d16b4828beb5cbb7","23","07/1998","Single","English","none","Male","White or Caucasian","No","High School","Yes, Undergraduate studies","N/A","n/A","N/A","4","0","3","1","4","0.516666666","stim/H010.jpg","76","76","0.5","3","1","3","","3","3","2","2","2","2","3","4","0","3","0","3","1","4","1","4","4","1","2","0","0","4","1","3","5","4","1","3","4","5","1","1","4","1","3","3","3","3","2","3","3","3","3","3","3","1","5","4","4","4","3","4","5","5","4","3","1","0","3","3","2","agree","null","","","","","","","","stim/T040.jpg","null","","",""
"html-keyboard-response","140","469290","0.0-13.0-1.2","lxdk9vhv980v97p","1","60cb78a6d16b4828beb5cbb7","23","07/1998","Single","English","none","Male","White or Caucasian","No","High School","Yes, Undergraduate studies","N/A","n/A","N/A","4","0","3","1","4","0.516666666","stim/H010.jpg","76","76","0.5","3","1","3","","3","3","2","2","2","2","3","4","0","3","0","3","1","4","1","4","4","1","2","0","0","4","1","3","5","4","1","3","4","5","1","1","4","1","3","3","3","3","2","3","3","3","3","3","3","1","5","4","4","4","3","4","5","5","4","3","1","0","3","3","2","agree","245.40000000037253","","","","","","","","<div style=""font-size:60px;"">?</div>","65","3","2","0.8"
"image-keyboard-response","141","470295","0.0-13.0-0.3","lxdk9vhv980v97p","1","60cb78a6d16b4828beb5cbb7","23","07/1998","Single","English","none","Male","White or Caucasian","No","High School","Yes, Undergraduate studies","N/A","n/A","N/A","4","0","3","1","4","0.516666666","stim/H010.jpg","76","76","0.5","3","1","3","","3","3","2","2","2","2","3","4","0","3","0","3","1","4","1","4","4","1","2","0","0","4","1","3","5","4","1","3","4","5","1","1","4","1","3","3","3","3","2","3","3","3","3","3","3","1","5","4","4","4","3","4","5","5","4","3","1","0","3","3","2","agree","null","","","","","","","","stim/H260.jpg","null","","",""
"html-keyboard-response","142","470490","0.0-13.0-1.3","lxdk9vhv980v97p","1","60cb78a6d16b4828beb5cbb7","23","07/1998","Single","English","none","Male","White or Caucasian","No","High School","Yes, Undergraduate studies","N/A","n/A","N/A","4","0","3","1","4","0.516666666","stim/H010.jpg","76","76","0.5","3","1","3","","3","3","2","2","2","2","3","4","0","3","0","3","1","4","1","4","4","1","2","0","0","4","1","3","5","4","1","3","4","5","1","1","4","1","3","3","3","3","2","3","3","3","3","3","3","1","5","4","4","4","3","4","5","5","4","3","1","0","3","3","2","agree","194.59999999962747","","","","","","","","<div style=""font-size:60px;"">?</div>","76","4","2","0.8"
"image-keyboard-response","143","471495","0.0-13.0-0.4","lxdk9vhv980v97p","1","60cb78a6d16b4828beb5cbb7","23","07/1998","Single","English","none","Male","White or Caucasian","No","High School","Yes, Undergraduate studies","N/A","n/A","N/A","4","0","3","1","4","0.516666666","stim/H010.jpg","76","76","0.5","3","1","3","","3","3","2","2","2","2","3","4","0","3","0","3","1","4","1","4","4","1","2","0","0","4","1","3","5","4","1","3","4","5","1","1","4","1","3","3","3","3","2","3","3","3","3","3","3","1","5","4","4","4","3","4","5","5","4","3","1","0","3","3","2","agree","null","","","","","","","","stim/H200.jpg","null","","",""
"html-keyboard-response","144","471658","0.0-13.0-1.4","lxdk9vhv980v97p","1","60cb78a6d16b4828beb5cbb7","23","07/1998","Single","English","none","Male","White or Caucasian","No","High School","Yes, Undergraduate studies","N/A","n/A","N/A","4","0","3","1","4","0.516666666","stim/H010.jpg","76","76","0.5","3","1","3","","3","3","2","2","2","2","3","4","0","3","0","3","1","4","1","4","4","1","2","0","0","4","1","3","5","4","1","3","4","5","1","1","4","1","3","3","3","3","2","3","3","3","3","3","3","1","5","4","4","4","3","4","5","5","4","3","1","0","3","3","2","agree","163","","","","","","","","<div style=""font-size:60px;"">?</div>","76","5","2","0.8"
"image-keyboard-response","145","472664","0.0-13.0-0.5","lxdk9vhv980v97p","1","60cb78a6d16b4828beb5cbb7","23","07/1998","Single","English","none","Male","White or Caucasian","No","High School","Yes, Undergraduate studies","N/A","n/A","N/A","4","0","3","1","4","0.516666666","stim/H010.jpg","76","76","0.5","3","1","3","","3","3","2","2","2","2","3","4","0","3","0","3","1","4","1","4","4","1","2","0","0","4","1","3","5","4","1","3","4","5","1","1","4","1","3","3","3","3","2","3","3","3","3","3","3","1","5","4","4","4","3","4","5","5","4","3","1","0","3","3","2","agree","null","","","","","","","","stim/H010.jpg","null","","",""
"html-keyboard-response","146","472810","0.0-13.0-1.5","lxdk9vhv980v97p","1","60cb78a6d16b4828beb5cbb7","23","07/1998","Single","English","none","Male","White or Caucasian","No","High School","Yes, Undergraduate studies","N/A","n/A","N/A","4","0","3","1","4","0.516666666","stim/H010.jpg","76","76","0.5","3","1","3","","3","3","2","2","2","2","3","4","0","3","0","3","1","4","1","4","4","1","2","0","0","4","1","3","5","4","1","3","4","5","1","1","4","1","3","3","3","3","2","3","3","3","3","3","3","1","5","4","4","4","3","4","5","5","4","3","1","0","3","3","2","agree","145.30000000074506","","","","","","","","<div style=""font-size:60px;"">?</div>","65","6","2","0.8"
"image-keyboard-response","147","473829","0.0-13.0-0.6","lxdk9vhv980v97p","1","60cb78a6d16b4828beb5cbb7","23","07/1998","Single","English","none","Male","White or Caucasian","No","High School","Yes, Undergraduate studies","N/A","n/A","N/A","4","0","3","1","4","0.516666666","stim/H010.jpg","76","76","0.5","3","1","3","","3","3","2","2","2","2","3","4","0","3","0","3","1","4","1","4","4","1","2","0","0","4","1","3","5","4","1","3","4","5","1","1","4","1","3","3","3","3","2","3","3","3","3","3","3","1","5","4","4","4","3","4","5","5","4","3","1","0","3","3","2","agree","null","","","","","","","","stim/H130.jpg","null","","",""
"html-keyboard-response","148","474090","0.0-13.0-1.6","lxdk9vhv980v97p","1","60cb78a6d16b4828beb5cbb7","23","07/1998","Single","English","none","Male","White or Caucasian","No","High School","Yes, Undergraduate studies","N/A","n/A","N/A","4","0","3","1","4","0.516666666","stim/H010.jpg","76","76","0.5","3","1","3","","3","3","2","2","2","2","3","4","0","3","0","3","1","4","1","4","4","1","2","0","0","4","1","3","5","4","1","3","4","5","1","1","4","1","3","3","3","3","2","3","3","3","3","3","3","1","5","4","4","4","3","4","5","5","4","3","1","0","3","3","2","agree","260.40000000037253","","","","","","","","<div style=""font-size:60px;"">?</div>","76","7","2","0.8"
"image-keyboard-response","149","475113","0.0-13.0-0.7","lxdk9vhv980v97p","1","60cb78a6d16b4828beb5cbb7","23","07/1998","Single","English","none","Male","White or Caucasian","No","High School","Yes, Undergraduate studies","N/A","n/A","N/A","4","0","3","1","4","0.516666666","stim/H010.jpg","76","76","0.5","3","1","3","","3","3","2","2","2","2","3","4","0","3","0","3","1","4","1","4","4","1","2","0","0","4","1","3","5","4","1","3","4","5","1","1","4","1","3","3","3","3","2","3","3","3","3","3","3","1","5","4","4","4","3","4","5","5","4","3","1","0","3","3","2","agree","null","","","","","","","","stim/H200.jpg","null","","",""
