"trial_type","trial_index","time_elapsed","internal_node_id","subject","condition","ID","age","dob","marital","natlang","olang","gender","ethnicity","mental_check","educ_l","educ_c","mental","mentdrug","mentpos","sesparent","sesstudent","sesladder","educ_hs","educ_ce","s1self","chosenbody","s1selfjudge","s2selfjudge","s2self","sspc_01","sspc_02","pas_01","pas_02","pas_03","pas_04","pas_05","pas_06","pas_07","pas_08","pas_09","pas_10","pas_11","pas_12","pas_13","pas_14","contact_01","contact_02","contact_03","contact_04","contact_05","contact_06","contact_07","contact_08","contact_09","idnd_01","idnd_02","idnd_03","idnd_04","idnd_05","idnd_06","idnd_07","idnd_08","catch_01","adig_01","adig_02","adig_03","plcs_01","plcs_02","plcs_03","plcs_04","plcs_05","plcs_06","plcs_07","plcs_08","plcs_09","plcs_10","plcs_11","plcs_12","catch_02","wwwp_01","wwwp_02","wwwp_03","wwwp_04","wwwp_05","wwwp_06","wwwp_07","wwwp_08","wwwp_09","lsns_fam_1","lsns_fam_2","lsns_fam_3","lsns_fri_1","lsns_fri_2","lsns_fri_3","debrief","rt","url","success","view_history","responses","question_order","final_value","start_value","stimulus","key_press","trial","block","freq"
"pavlovia","0","4","0.0-0.0","3eshmejk9mt51go","1","6110b60fcd15f143b1ec157e","21","07/2000","Single","English","French","Female","White or Caucasian","No","High School","Yes, Undergraduate studies","N/A","N/A","N/A","5","2","4","2","3","0.883333338","stim/H230.jpg","76","76","0.766666676","2","2","3","","4","0","2","3","1","0","4","4","0","1","0","0","6","6","0","6","6","0","6","2","5","6","0","6","6","6","0","5","6","5","3","2","1","0","0","2","1","3","0","5","5","4","5","5","6","1","6","6","6","5","5","6","6","6","5","3","5","3","2","2","2","agree","","","","","","","","","","","","",""
"external-html","1","6932","0.0-1.0","3eshmejk9mt51go","1","6110b60fcd15f143b1ec157e","21","07/2000","Single","English","French","Female","White or Caucasian","No","High School","Yes, Undergraduate studies","N/A","N/A","N/A","5","2","4","2","3","0.883333338","stim/H230.jpg","76","76","0.766666676","2","2","3","","4","0","2","3","1","0","4","4","0","1","0","0","6","6","0","6","6","0","6","2","5","6","0","6","6","6","0","5","6","5","3","2","1","0","0","2","1","3","0","5","5","4","5","5","6","1","6","6","6","5","5","6","6","6","5","3","5","3","2","2","2","agree","6781.199999928474","sub/html/consent.html","","","","","","","","","","",""
"fullscreen","2","237361","0.0-2.0","3eshmejk9mt51go","1","6110b60fcd15f143b1ec157e","21","07/2000","Single","English","French","Female","White or Caucasian","No","High School","Yes, Undergraduate studies","N/A","N/A","N/A","5","2","4","2","3","0.883333338","stim/H230.jpg","76","76","0.766666676","2","2","3","","4","0","2","3","1","0","4","4","0","1","0","0","6","6","0","6","6","0","6","2","5","6","0","6","6","6","0","5","6","5","3","2","1","0","0","2","1","3","0","5","5","4","5","5","6","1","6","6","6","5","5","6","6","6","5","3","5","3","2","2","2","agree","","","true","","","","","","","","","",""
"instructions","3","250496","0.0-3.0","3eshmejk9mt51go","1","6110b60fcd15f143b1ec157e","21","07/2000","Single","English","French","Female","White or Caucasian","No","High School","Yes, Undergraduate studies","N/A","N/A","N/A","5","2","4","2","3","0.883333338","stim/H230.jpg","76","76","0.766666676","2","2","3","","4","0","2","3","1","0","4","4","0","1","0","0","6","6","0","6","6","0","6","2","5","6","0","6","6","6","0","5","6","5","3","2","1","0","0","2","1","3","0","5","5","4","5","5","6","1","6","6","6","5","5","6","6","6","5","3","5","3","2","2","2","agree","13134.600000023842","","","[{""page_index"":0,""viewing_time"":4770.700000047684},{""page_index"":1,""viewing_time"":8363.100000023842}]","","","","","","","","",""
"survey-text","4","296965","0.0-4.0-0.0","3eshmejk9mt51go","1","6110b60fcd15f143b1ec157e","21","07/2000","Single","English","French","Female","White or Caucasian","No","High School","Yes, Undergraduate studies","N/A","N/A","N/A","5","2","4","2","3","0.883333338","stim/H230.jpg","76","76","0.766666676","2","2","3","","4","0","2","3","1","0","4","4","0","1","0","0","6","6","0","6","6","0","6","2","5","6","0","6","6","6","0","5","6","5","3","2","1","0","0","2","1","3","0","5","5","4","5","5","6","1","6","6","6","5","5","6","6","6","5","3","5","3","2","2","2","agree","46446.799999952316","","","","{""ID"":""6110b60fcd15f143b1ec157e"",""age"":""21"",""dob"":""07/2000"",""marital"":""Single"",""natlang"":""English"",""olang"":""French""}","","","","","","","",""
"survey-multi-choice","5","318726","0.0-4.0-1.0","3eshmejk9mt51go","1","6110b60fcd15f143b1ec157e","21","07/2000","Single","English","French","Female","White or Caucasian","No","High School","Yes, Undergraduate studies","N/A","N/A","N/A","5","2","4","2","3","0.883333338","stim/H230.jpg","76","76","0.766666676","2","2","3","","4","0","2","3","1","0","4","4","0","1","0","0","6","6","0","6","6","0","6","2","5","6","0","6","6","6","0","5","6","5","3","2","1","0","0","2","1","3","0","5","5","4","5","5","6","1","6","6","6","5","5","6","6","6","5","3","5","3","2","2","2","agree","21758.799999952316","","","","{""gender"":""Female"",""ethnicity"":""White or Caucasian"",""mental_check"":""No"",""educ_l"":""High School"",""educ_c"":""Yes, Undergraduate studies""}","[0,1,2,3,4]","","","","","","",""
"survey-text","6","334963","0.0-4.0-2.0","3eshmejk9mt51go","1","6110b60fcd15f143b1ec157e","21","07/2000","Single","English","French","Female","White or Caucasian","No","High School","Yes, Undergraduate studies","N/A","N/A","N/A","5","2","4","2","3","0.883333338","stim/H230.jpg","76","76","0.766666676","2","2","3","","4","0","2","3","1","0","4","4","0","1","0","0","6","6","0","6","6","0","6","2","5","6","0","6","6","6","0","5","6","5","3","2","1","0","0","2","1","3","0","5","5","4","5","5","6","1","6","6","6","5","5","6","6","6","5","3","5","3","2","2","2","agree","16227.199999928474","","","","{""mental"":""N/A"",""mentdrug"":""N/A"",""mentpos"":""N/A""}","","","","","","","",""
"survey-likert","7","378466","0.0-4.0-3.0","3eshmejk9mt51go","1","6110b60fcd15f143b1ec157e","21","07/2000","Single","English","French","Female","White or Caucasian","No","High School","Yes, Undergraduate studies","N/A","N/A","N/A","5","2","4","2","3","0.883333338","stim/H230.jpg","76","76","0.766666676","2","2","3","","4","0","2","3","1","0","4","4","0","1","0","0","6","6","0","6","6","0","6","2","5","6","0","6","6","6","0","5","6","5","3","2","1","0","0","2","1","3","0","5","5","4","5","5","6","1","6","6","6","5","5","6","6","6","5","3","5","3","2","2","2","agree","43500.200000047684","","","","{""sesparent"":5,""sesstudent"":2,""sesladder"":4}","[0,1,2]","","","","","","",""
"survey-likert","8","399180","0.0-4.0-4.0","3eshmejk9mt51go","1","6110b60fcd15f143b1ec157e","21","07/2000","Single","English","French","Female","White or Caucasian","No","High School","Yes, Undergraduate studies","N/A","N/A","N/A","5","2","4","2","3","0.883333338","stim/H230.jpg","76","76","0.766666676","2","2","3","","4","0","2","3","1","0","4","4","0","1","0","0","6","6","0","6","6","0","6","2","5","6","0","6","6","6","0","5","6","5","3","2","1","0","0","2","1","3","0","5","5","4","5","5","6","1","6","6","6","5","5","6","6","6","5","3","5","3","2","2","2","agree","20707.800000071526","","","","{""educ_hs"":3,""educ_ce"":13}","[0,1]","","","","","","",""
"reconstruction","9","433285","0.0-5.0","3eshmejk9mt51go","1","6110b60fcd15f143b1ec157e","21","07/2000","Single","English","French","Female","White or Caucasian","No","High School","Yes, Undergraduate studies","N/A","N/A","N/A","5","2","4","2","3","0.883333338","stim/H230.jpg","76","76","0.766666676","2","2","3","","4","0","2","3","1","0","4","4","0","1","0","0","6","6","0","6","6","0","6","2","5","6","0","6","6","6","0","5","6","5","3","2","1","0","0","2","1","3","0","5","5","4","5","5","6","1","6","6","6","5","5","6","6","6","5","3","5","3","2","2","2","agree","34099.59999990463","","","","","","0.883333338","0.5","","","","",""
"image-keyboard-response","10","445101","0.0-6.0","3eshmejk9mt51go","1","6110b60fcd15f143b1ec157e","21","07/2000","Single","English","French","Female","White or Caucasian","No","High School","Yes, Undergraduate studies","N/A","N/A","N/A","5","2","4","2","3","0.883333338","stim/H230.jpg","76","76","0.766666676","2","2","3","","4","0","2","3","1","0","4","4","0","1","0","0","6","6","0","6","6","0","6","2","5","6","0","6","6","6","0","5","6","5","3","2","1","0","0","2","1","3","0","5","5","4","5","5","6","1","6","6","6","5","5","6","6","6","5","3","5","3","2","2","2","agree","11811","","","","","","","","stim/H230.jpg","76","","",""
"instructions","11","511313","0.0-7.0","3eshmejk9mt51go","1","6110b60fcd15f143b1ec157e","21","07/2000","Single","English","French","Female","White or Caucasian","No","High School","Yes, Undergraduate studies","N/A","N/A","N/A","5","2","4","2","3","0.883333338","stim/H230.jpg","76","76","0.766666676","2","2","3","","4","0","2","3","1","0","4","4","0","1","0","0","6","6","0","6","6","0","6","2","5","6","0","6","6","6","0","5","6","5","3","2","1","0","0","2","1","3","0","5","5","4","5","5","6","1","6","6","6","5","5","6","6","6","5","3","5","3","2","2","2","agree","66212","","","[{""page_index"":0,""viewing_time"":2534.1999999284744},{""page_index"":1,""viewing_time"":19258.399999976158},{""page_index"":2,""viewing_time"":10339.900000095367},{""page_index"":3,""viewing_time"":6504.199999928474},{""page_index"":4,""viewing_time"":7858.100000023842},{""page_index"":5,""viewing_time"":14209.5},{""page_index"":6,""viewing_time"":5507.299999952316}]","","","","","","","","",""
"image-keyboard-response","12","511827","0.0-8.0-0.0","3eshmejk9mt51go","1","6110b60fcd15f143b1ec157e","21","07/2000","Single","English","French","Female","White or Caucasian","No","High School","Yes, Undergraduate studies","N/A","N/A","N/A","5","2","4","2","3","0.883333338","stim/H230.jpg","76","76","0.766666676","2","2","3","","4","0","2","3","1","0","4","4","0","1","0","0","6","6","0","6","6","0","6","2","5","6","0","6","6","6","0","5","6","5","3","2","1","0","0","2","1","3","0","5","5","4","5","5","6","1","6","6","6","5","5","6","6","6","5","3","5","3","2","2","2","agree","null","","","","","","","","stim/H020.jpg","null","","",""
"html-keyboard-response","13","515830","0.0-8.0-1.0","3eshmejk9mt51go","1","6110b60fcd15f143b1ec157e","21","07/2000","Single","English","French","Female","White or Caucasian","No","High School","Yes, Undergraduate studies","N/A","N/A","N/A","5","2","4","2","3","0.883333338","stim/H230.jpg","76","76","0.766666676","2","2","3","","4","0","2","3","1","0","4","4","0","1","0","0","6","6","0","6","6","0","6","2","5","6","0","6","6","6","0","5","6","5","3","2","1","0","0","2","1","3","0","5","5","4","5","5","6","1","6","6","6","5","5","6","6","6","5","3","5","3","2","2","2","agree","4001","","","","","","","","<div style=""font-size:60px;"">?</div>","76","1","Practice","0.5"
"image-keyboard-response","14","516856","0.0-8.0-0.1","3eshmejk9mt51go","1","6110b60fcd15f143b1ec157e","21","07/2000","Single","English","French","Female","White or Caucasian","No","High School","Yes, Undergraduate studies","N/A","N/A","N/A","5","2","4","2","3","0.883333338","stim/H230.jpg","76","76","0.766666676","2","2","3","","4","0","2","3","1","0","4","4","0","1","0","0","6","6","0","6","6","0","6","2","5","6","0","6","6","6","0","5","6","5","3","2","1","0","0","2","1","3","0","5","5","4","5","5","6","1","6","6","6","5","5","6","6","6","5","3","5","3","2","2","2","agree","null","","","","","","","","stim/T260.jpg","null","","",""
"html-keyboard-response","15","517288","0.0-8.0-1.1","3eshmejk9mt51go","1","6110b60fcd15f143b1ec157e","21","07/2000","Single","English","French","Female","White or Caucasian","No","High School","Yes, Undergraduate studies","N/A","N/A","N/A","5","2","4","2","3","0.883333338","stim/H230.jpg","76","76","0.766666676","2","2","3","","4","0","2","3","1","0","4","4","0","1","0","0","6","6","0","6","6","0","6","2","5","6","0","6","6","6","0","5","6","5","3","2","1","0","0","2","1","3","0","5","5","4","5","5","6","1","6","6","6","5","5","6","6","6","5","3","5","3","2","2","2","agree","431.60000002384186","","","","","","","","<div style=""font-size:60px;"">?</div>","65","2","Practice","0.5"
"image-keyboard-response","16","518293","0.0-8.0-0.2","3eshmejk9mt51go","1","6110b60fcd15f143b1ec157e","21","07/2000","Single","English","French","Female","White or Caucasian","No","High School","Yes, Undergraduate studies","N/A","N/A","N/A","5","2","4","2","3","0.883333338","stim/H230.jpg","76","76","0.766666676","2","2","3","","4","0","2","3","1","0","4","4","0","1","0","0","6","6","0","6","6","0","6","2","5","6","0","6","6","6","0","5","6","5","3","2","1","0","0","2","1","3","0","5","5","4","5","5","6","1","6","6","6","5","5","6","6","6","5","3","5","3","2","2","2","agree","null","","","","","","","","stim/H300.jpg","null","","",""
"html-keyboard-response","17","518457","0.0-8.0-1.2","3eshmejk9mt51go","1","6110b60fcd15f143b1ec157e","21","07/2000","Single","English","French","Female","White or Caucasian","No","High School","Yes, Undergraduate studies","N/A","N/A","N/A","5","2","4","2","3","0.883333338","stim/H230.jpg","76","76","0.766666676","2","2","3","","4","0","2","3","1","0","4","4","0","1","0","0","6","6","0","6","6","0","6","2","5","6","0","6","6","6","0","5","6","5","3","2","1","0","0","2","1","3","0","5","5","4","5","5","6","1","6","6","6","5","5","6","6","6","5","3","5","3","2","2","2","agree","162.19999992847443","","","","","","","","<div style=""font-size:60px;"">?</div>","76","3","Practice","0.5"
"image-keyboard-response","18","519477","0.0-8.0-0.3","3eshmejk9mt51go","1","6110b60fcd15f143b1ec157e","21","07/2000","Single","English","French","Female","White or Caucasian","No","High School","Yes, Undergraduate studies","N/A","N/A","N/A","5","2","4","2","3","0.883333338","stim/H230.jpg","76","76","0.766666676","2","2","3","","4","0","2","3","1","0","4","4","0","1","0","0","6","6","0","6","6","0","6","2","5","6","0","6","6","6","0","5","6","5","3","2","1","0","0","2","1","3","0","5","5","4","5","5","6","1","6","6","6","5","5","6","6","6","5","3","5","3","2","2","2","agree","null","","","","","","","","stim/T230.jpg","null","","",""
"html-keyboard-response","19","519701","0.0-8.0-1.3","3eshmejk9mt51go","1","6110b60fcd15f143b1ec157e","21","07/2000","Single","English","French","Female","White or Caucasian","No","High School","Yes, Undergraduate studies","N/A","N/A","N/A","5","2","4","2","3","0.883333338","stim/H230.jpg","76","76","0.766666676","2","2","3","","4","0","2","3","1","0","4","4","0","1","0","0","6","6","0","6","6","0","6","2","5","6","0","6","6","6","0","5","6","5","3","2","1","0","0","2","1","3","0","5","5","4","5","5","6","1","6","6","6","5","5","6","6","6","5","3","5","3","2","2","2","agree","222.79999995231628","","","","","","","","<div style=""font-size:60px;"">?</div>","65","4","Practice","0.5"
"image-keyboard-response","20","520727","0.0-8.0-0.4","3eshmejk9mt51go","1","6110b60fcd15f143b1ec157e","21","07/2000","Single","English","French","Female","White or Caucasian","No","High School","Yes, Undergraduate studies","N/A","N/A","N/A","5","2","4","2","3","0.883333338","stim/H230.jpg","76","76","0.766666676","2","2","3","","4","0","2","3","1","0","4","4","0","1","0","0","6","6","0","6","6","0","6","2","5","6","0","6","6","6","0","5","6","5","3","2","1","0","0","2","1","3","0","5","5","4","5","5","6","1","6","6","6","5","5","6","6","6","5","3","5","3","2","2","2","agree","null","","","","","","","","stim/H150.jpg","null","","",""
"html-keyboard-response","21","522886","0.0-8.0-1.4","3eshmejk9mt51go","1","6110b60fcd15f143b1ec157e","21","07/2000","Single","English","French","Female","White or Caucasian","No","High School","Yes, Undergraduate studies","N/A","N/A","N/A","5","2","4","2","3","0.883333338","stim/H230.jpg","76","76","0.766666676","2","2","3","","4","0","2","3","1","0","4","4","0","1","0","0","6","6","0","6","6","0","6","2","5","6","0","6","6","6","0","5","6","5","3","2","1","0","0","2","1","3","0","5","5","4","5","5","6","1","6","6","6","5","5","6","6","6","5","3","5","3","2","2","2","agree","2157.5","","","","","","","","<div style=""font-size:60px;"">?</div>","76","5","Practice","0.5"
"image-keyboard-response","22","523906","0.0-8.0-0.5","3eshmejk9mt51go","1","6110b60fcd15f143b1ec157e","21","07/2000","Single","English","French","Female","White or Caucasian","No","High School","Yes, Undergraduate studies","N/A","N/A","N/A","5","2","4","2","3","0.883333338","stim/H230.jpg","76","76","0.766666676","2","2","3","","4","0","2","3","1","0","4","4","0","1","0","0","6","6","0","6","6","0","6","2","5","6","0","6","6","6","0","5","6","5","3","2","1","0","0","2","1","3","0","5","5","4","5","5","6","1","6","6","6","5","5","6","6","6","5","3","5","3","2","2","2","agree","null","","","","","","","","stim/T070.jpg","null","","",""
"html-keyboard-response","23","524958","0.0-8.0-1.5","3eshmejk9mt51go","1","6110b60fcd15f143b1ec157e","21","07/2000","Single","English","French","Female","White or Caucasian","No","High School","Yes, Undergraduate studies","N/A","N/A","N/A","5","2","4","2","3","0.883333338","stim/H230.jpg","76","76","0.766666676","2","2","3","","4","0","2","3","1","0","4","4","0","1","0","0","6","6","0","6","6","0","6","2","5","6","0","6","6","6","0","5","6","5","3","2","1","0","0","2","1","3","0","5","5","4","5","5","6","1","6","6","6","5","5","6","6","6","5","3","5","3","2","2","2","agree","1050.3999999761581","","","","","","","","<div style=""font-size:60px;"">?</div>","76","6","Practice","0.5"
"image-keyboard-response","24","525977","0.0-8.0-0.6","3eshmejk9mt51go","1","6110b60fcd15f143b1ec157e","21","07/2000","Single","English","French","Female","White or Caucasian","No","High School","Yes, Undergraduate studies","N/A","N/A","N/A","5","2","4","2","3","0.883333338","stim/H230.jpg","76","76","0.766666676","2","2","3","","4","0","2","3","1","0","4","4","0","1","0","0","6","6","0","6","6","0","6","2","5","6","0","6","6","6","0","5","6","5","3","2","1","0","0","2","1","3","0","5","5","4","5","5","6","1","6","6","6","5","5","6","6","6","5","3","5","3","2","2","2","agree","null","","","","","","","","stim/T140.jpg","null","","",""
"html-keyboard-response","25","526281","0.0-8.0-1.6","3eshmejk9mt51go","1","6110b60fcd15f143b1ec157e","21","07/2000","Single","English","French","Female","White or Caucasian","No","High School","Yes, Undergraduate studies","N/A","N/A","N/A","5","2","4","2","3","0.883333338","stim/H230.jpg","76","76","0.766666676","2","2","3","","4","0","2","3","1","0","4","4","0","1","0","0","6","6","0","6","6","0","6","2","5","6","0","6","6","6","0","5","6","5","3","2","1","0","0","2","1","3","0","5","5","4","5","5","6","1","6","6","6","5","5","6","6","6","5","3","5","3","2","2","2","agree","301.2000000476837","","","","","","","","<div style=""font-size:60px;"">?</div>","65","7","Practice","0.5"
"image-keyboard-response","26","527305","0.0-8.0-0.7","3eshmejk9mt51go","1","6110b60fcd15f143b1ec157e","21","07/2000","Single","English","French","Female","White or Caucasian","No","High School","Yes, Undergraduate studies","N/A","N/A","N/A","5","2","4","2","3","0.883333338","stim/H230.jpg","76","76","0.766666676","2","2","3","","4","0","2","3","1","0","4","4","0","1","0","0","6","6","0","6","6","0","6","2","5","6","0","6","6","6","0","5","6","5","3","2","1","0","0","2","1","3","0","5","5","4","5","5","6","1","6","6","6","5","5","6","6","6","5","3","5","3","2","2","2","agree","null","","","","","","","","stim/H020.jpg","null","","",""
"html-keyboard-response","27","527611","0.0-8.0-1.7","3eshmejk9mt51go","1","6110b60fcd15f143b1ec157e","21","07/2000","Single","English","French","Female","White or Caucasian","No","High School","Yes, Undergraduate studies","N/A","N/A","N/A","5","2","4","2","3","0.883333338","stim/H230.jpg","76","76","0.766666676","2","2","3","","4","0","2","3","1","0","4","4","0","1","0","0","6","6","0","6","6","0","6","2","5","6","0","6","6","6","0","5","6","5","3","2","1","0","0","2","1","3","0","5","5","4","5","5","6","1","6","6","6","5","5","6","6","6","5","3","5","3","2","2","2","agree","305.1999999284744","","","","","","","","<div style=""font-size:60px;"">?</div>","76","8","Practice","0.5"
"image-keyboard-response","28","528628","0.0-8.0-0.8","3eshmejk9mt51go","1","6110b60fcd15f143b1ec157e","21","07/2000","Single","English","French","Female","White or Caucasian","No","High School","Yes, Undergraduate studies","N/A","N/A","N/A","5","2","4","2","3","0.883333338","stim/H230.jpg","76","76","0.766666676","2","2","3","","4","0","2","3","1","0","4","4","0","1","0","0","6","6","0","6","6","0","6","2","5","6","0","6","6","6","0","5","6","5","3","2","1","0","0","2","1","3","0","5","5","4","5","5","6","1","6","6","6","5","5","6","6","6","5","3","5","3","2","2","2","agree","null","","","","","","","","stim/H230.jpg","null","","",""
"html-keyboard-response","29","530610","0.0-8.0-1.8","3eshmejk9mt51go","1","6110b60fcd15f143b1ec157e","21","07/2000","Single","English","French","Female","White or Caucasian","No","High School","Yes, Undergraduate studies","N/A","N/A","N/A","5","2","4","2","3","0.883333338","stim/H230.jpg","76","76","0.766666676","2","2","3","","4","0","2","3","1","0","4","4","0","1","0","0","6","6","0","6","6","0","6","2","5","6","0","6","6","6","0","5","6","5","3","2","1","0","0","2","1","3","0","5","5","4","5","5","6","1","6","6","6","5","5","6","6","6","5","3","5","3","2","2","2","agree","1980.8999999761581","","","","","","","","<div style=""font-size:60px;"">?</div>","76","9","Practice","0.5"
"image-keyboard-response","30","531633","0.0-8.0-0.9","3eshmejk9mt51go","1","6110b60fcd15f143b1ec157e","21","07/2000","Single","English","French","Female","White or Caucasian","No","High School","Yes, Undergraduate studies","N/A","N/A","N/A","5","2","4","2","3","0.883333338","stim/H230.jpg","76","76","0.766666676","2","2","3","","4","0","2","3","1","0","4","4","0","1","0","0","6","6","0","6","6","0","6","2","5","6","0","6","6","6","0","5","6","5","3","2","1","0","0","2","1","3","0","5","5","4","5","5","6","1","6","6","6","5","5","6","6","6","5","3","5","3","2","2","2","agree","null","","","","","","","","stim/T290.jpg","null","","",""
"html-keyboard-response","31","531912","0.0-8.0-1.9","3eshmejk9mt51go","1","6110b60fcd15f143b1ec157e","21","07/2000","Single","English","French","Female","White or Caucasian","No","High School","Yes, Undergraduate studies","N/A","N/A","N/A","5","2","4","2","3","0.883333338","stim/H230.jpg","76","76","0.766666676","2","2","3","","4","0","2","3","1","0","4","4","0","1","0","0","6","6","0","6","6","0","6","2","5","6","0","6","6","6","0","5","6","5","3","2","1","0","0","2","1","3","0","5","5","4","5","5","6","1","6","6","6","5","5","6","6","6","5","3","5","3","2","2","2","agree","277.60000002384186","","","","","","","","<div style=""font-size:60px;"">?</div>","65","10","Practice","0.5"
"html-keyboard-response","32","594029","0.0-9.0","3eshmejk9mt51go","1","6110b60fcd15f143b1ec157e","21","07/2000","Single","English","French","Female","White or Caucasian","No","High School","Yes, Undergraduate studies","N/A","N/A","N/A","5","2","4","2","3","0.883333338","stim/H230.jpg","76","76","0.766666676","2","2","3","","4","0","2","3","1","0","4","4","0","1","0","0","6","6","0","6","6","0","6","2","5","6","0","6","6","6","0","5","6","5","3","2","1","0","0","2","1","3","0","5","5","4","5","5","6","1","6","6","6","5","5","6","6","6","5","3","5","3","2","2","2","agree","61612.700000047684","","","","","","","","<p>You have now completed the practice series.</p><p>If you have any questions, please reload this page and read the instructions again.</p><p>Otherwise, you're ready to begin the study!</p><p><strong>REMEMBER</strong>: Press <b>L </b>when you think the face is of Western origin, and <b>A </b>if not. </p><p>Press SPACE when you're ready to start!</p>","32","","",""
"html-keyboard-response","33","596561","0.0-10.0","3eshmejk9mt51go","1","6110b60fcd15f143b1ec157e","21","07/2000","Single","English","French","Female","White or Caucasian","No","High School","Yes, Undergraduate studies","N/A","N/A","N/A","5","2","4","2","3","0.883333338","stim/H230.jpg","76","76","0.766666676","2","2","3","","4","0","2","3","1","0","4","4","0","1","0","0","6","6","0","6","6","0","6","2","5","6","0","6","6","6","0","5","6","5","3","2","1","0","0","2","1","3","0","5","5","4","5","5","6","1","6","6","6","5","5","6","6","6","5","3","5","3","2","2","2","agree","2026.8999999761581","","","","","","","","<p>Block 1</p><p>Press SPACE to continue.</p>","32","","",""
"image-keyboard-response","34","598080","0.0-11.0-0.0","3eshmejk9mt51go","1","6110b60fcd15f143b1ec157e","21","07/2000","Single","English","French","Female","White or Caucasian","No","High School","Yes, Undergraduate studies","N/A","N/A","N/A","5","2","4","2","3","0.883333338","stim/H230.jpg","76","76","0.766666676","2","2","3","","4","0","2","3","1","0","4","4","0","1","0","0","6","6","0","6","6","0","6","2","5","6","0","6","6","6","0","5","6","5","3","2","1","0","0","2","1","3","0","5","5","4","5","5","6","1","6","6","6","5","5","6","6","6","5","3","5","3","2","2","2","agree","null","","","","","","","","stim/H170.jpg","null","","",""
"html-keyboard-response","35","599953","0.0-11.0-1.0","3eshmejk9mt51go","1","6110b60fcd15f143b1ec157e","21","07/2000","Single","English","French","Female","White or Caucasian","No","High School","Yes, Undergraduate studies","N/A","N/A","N/A","5","2","4","2","3","0.883333338","stim/H230.jpg","76","76","0.766666676","2","2","3","","4","0","2","3","1","0","4","4","0","1","0","0","6","6","0","6","6","0","6","2","5","6","0","6","6","6","0","5","6","5","3","2","1","0","0","2","1","3","0","5","5","4","5","5","6","1","6","6","6","5","5","6","6","6","5","3","5","3","2","2","2","agree","1871.6000000238419","","","","","","","","<div style=""font-size:60px;"">?</div>","76","1","1","0.8"
"image-keyboard-response","36","600979","0.0-11.0-0.1","3eshmejk9mt51go","1","6110b60fcd15f143b1ec157e","21","07/2000","Single","English","French","Female","White or Caucasian","No","High School","Yes, Undergraduate studies","N/A","N/A","N/A","5","2","4","2","3","0.883333338","stim/H230.jpg","76","76","0.766666676","2","2","3","","4","0","2","3","1","0","4","4","0","1","0","0","6","6","0","6","6","0","6","2","5","6","0","6","6","6","0","5","6","5","3","2","1","0","0","2","1","3","0","5","5","4","5","5","6","1","6","6","6","5","5","6","6","6","5","3","5","3","2","2","2","agree","null","","","","","","","","stim/H140.jpg","null","","",""
"html-keyboard-response","37","601326","0.0-11.0-1.1","3eshmejk9mt51go","1","6110b60fcd15f143b1ec157e","21","07/2000","Single","English","French","Female","White or Caucasian","No","High School","Yes, Undergraduate studies","N/A","N/A","N/A","5","2","4","2","3","0.883333338","stim/H230.jpg","76","76","0.766666676","2","2","3","","4","0","2","3","1","0","4","4","0","1","0","0","6","6","0","6","6","0","6","2","5","6","0","6","6","6","0","5","6","5","3","2","1","0","0","2","1","3","0","5","5","4","5","5","6","1","6","6","6","5","5","6","6","6","5","3","5","3","2","2","2","agree","346.2999999523163","","","","","","","","<div style=""font-size:60px;"">?</div>","76","2","1","0.8"
"image-keyboard-response","38","602347","0.0-11.0-0.2","3eshmejk9mt51go","1","6110b60fcd15f143b1ec157e","21","07/2000","Single","English","French","Female","White or Caucasian","No","High School","Yes, Undergraduate studies","N/A","N/A","N/A","5","2","4","2","3","0.883333338","stim/H230.jpg","76","76","0.766666676","2","2","3","","4","0","2","3","1","0","4","4","0","1","0","0","6","6","0","6","6","0","6","2","5","6","0","6","6","6","0","5","6","5","3","2","1","0","0","2","1","3","0","5","5","4","5","5","6","1","6","6","6","5","5","6","6","6","5","3","5","3","2","2","2","agree","null","","","","","","","","stim/T050.jpg","null","","",""
"html-keyboard-response","39","604676","0.0-11.0-1.2","3eshmejk9mt51go","1","6110b60fcd15f143b1ec157e","21","07/2000","Single","English","French","Female","White or Caucasian","No","High School","Yes, Undergraduate studies","N/A","N/A","N/A","5","2","4","2","3","0.883333338","stim/H230.jpg","76","76","0.766666676","2","2","3","","4","0","2","3","1","0","4","4","0","1","0","0","6","6","0","6","6","0","6","2","5","6","0","6","6","6","0","5","6","5","3","2","1","0","0","2","1","3","0","5","5","4","5","5","6","1","6","6","6","5","5","6","6","6","5","3","5","3","2","2","2","agree","2327.100000023842","","","","","","","","<div style=""font-size:60px;"">?</div>","76","3","1","0.8"
"image-keyboard-response","40","605701","0.0-11.0-0.3","3eshmejk9mt51go","1","6110b60fcd15f143b1ec157e","21","07/2000","Single","English","French","Female","White or Caucasian","No","High School","Yes, Undergraduate studies","N/A","N/A","N/A","5","2","4","2","3","0.883333338","stim/H230.jpg","76","76","0.766666676","2","2","3","","4","0","2","3","1","0","4","4","0","1","0","0","6","6","0","6","6","0","6","2","5","6","0","6","6","6","0","5","6","5","3","2","1","0","0","2","1","3","0","5","5","4","5","5","6","1","6","6","6","5","5","6","6","6","5","3","5","3","2","2","2","agree","null","","","","","","","","stim/H160.jpg","null","","",""
"html-keyboard-response","41","607372","0.0-11.0-1.3","3eshmejk9mt51go","1","6110b60fcd15f143b1ec157e","21","07/2000","Single","English","French","Female","White or Caucasian","No","High School","Yes, Undergraduate studies","N/A","N/A","N/A","5","2","4","2","3","0.883333338","stim/H230.jpg","76","76","0.766666676","2","2","3","","4","0","2","3","1","0","4","4","0","1","0","0","6","6","0","6","6","0","6","2","5","6","0","6","6","6","0","5","6","5","3","2","1","0","0","2","1","3","0","5","5","4","5","5","6","1","6","6","6","5","5","6","6","6","5","3","5","3","2","2","2","agree","1669.3000000715256","","","","","","","","<div style=""font-size:60px;"">?</div>","76","4","1","0.8"
"image-keyboard-response","42","608391","0.0-11.0-0.4","3eshmejk9mt51go","1","6110b60fcd15f143b1ec157e","21","07/2000","Single","English","French","Female","White or Caucasian","No","High School","Yes, Undergraduate studies","N/A","N/A","N/A","5","2","4","2","3","0.883333338","stim/H230.jpg","76","76","0.766666676","2","2","3","","4","0","2","3","1","0","4","4","0","1","0","0","6","6","0","6","6","0","6","2","5","6","0","6","6","6","0","5","6","5","3","2","1","0","0","2","1","3","0","5","5","4","5","5","6","1","6","6","6","5","5","6","6","6","5","3","5","3","2","2","2","agree","null","","","","","","","","stim/H220.jpg","null","","",""
"html-keyboard-response","43","609280","0.0-11.0-1.4","3eshmejk9mt51go","1","6110b60fcd15f143b1ec157e","21","07/2000","Single","English","French","Female","White or Caucasian","No","High School","Yes, Undergraduate studies","N/A","N/A","N/A","5","2","4","2","3","0.883333338","stim/H230.jpg","76","76","0.766666676","2","2","3","","4","0","2","3","1","0","4","4","0","1","0","0","6","6","0","6","6","0","6","2","5","6","0","6","6","6","0","5","6","5","3","2","1","0","0","2","1","3","0","5","5","4","5","5","6","1","6","6","6","5","5","6","6","6","5","3","5","3","2","2","2","agree","887.1999999284744","","","","","","","","<div style=""font-size:60px;"">?</div>","76","5","1","0.8"
"image-keyboard-response","44","610297","0.0-11.0-0.5","3eshmejk9mt51go","1","6110b60fcd15f143b1ec157e","21","07/2000","Single","English","French","Female","White or Caucasian","No","High School","Yes, Undergraduate studies","N/A","N/A","N/A","5","2","4","2","3","0.883333338","stim/H230.jpg","76","76","0.766666676","2","2","3","","4","0","2","3","1","0","4","4","0","1","0","0","6","6","0","6","6","0","6","2","5","6","0","6","6","6","0","5","6","5","3","2","1","0","0","2","1","3","0","5","5","4","5","5","6","1","6","6","6","5","5","6","6","6","5","3","5","3","2","2","2","agree","null","","","","","","","","stim/H270.jpg","null","","",""
"html-keyboard-response","45","611030","0.0-11.0-1.5","3eshmejk9mt51go","1","6110b60fcd15f143b1ec157e","21","07/2000","Single","English","French","Female","White or Caucasian","No","High School","Yes, Undergraduate studies","N/A","N/A","N/A","5","2","4","2","3","0.883333338","stim/H230.jpg","76","76","0.766666676","2","2","3","","4","0","2","3","1","0","4","4","0","1","0","0","6","6","0","6","6","0","6","2","5","6","0","6","6","6","0","5","6","5","3","2","1","0","0","2","1","3","0","5","5","4","5","5","6","1","6","6","6","5","5","6","6","6","5","3","5","3","2","2","2","agree","731.2999999523163","","","","","","","","<div style=""font-size:60px;"">?</div>","76","6","1","0.8"
"image-keyboard-response","46","612052","0.0-11.0-0.6","3eshmejk9mt51go","1","6110b60fcd15f143b1ec157e","21","07/2000","Single","English","French","Female","White or Caucasian","No","High School","Yes, Undergraduate studies","N/A","N/A","N/A","5","2","4","2","3","0.883333338","stim/H230.jpg","76","76","0.766666676","2","2","3","","4","0","2","3","1","0","4","4","0","1","0","0","6","6","0","6","6","0","6","2","5","6","0","6","6","6","0","5","6","5","3","2","1","0","0","2","1","3","0","5","5","4","5","5","6","1","6","6","6","5","5","6","6","6","5","3","5","3","2","2","2","agree","null","","","","","","","","stim/H240.jpg","null","","",""
"html-keyboard-response","47","612842","0.0-11.0-1.6","3eshmejk9mt51go","1","6110b60fcd15f143b1ec157e","21","07/2000","Single","English","French","Female","White or Caucasian","No","High School","Yes, Undergraduate studies","N/A","N/A","N/A","5","2","4","2","3","0.883333338","stim/H230.jpg","76","76","0.766666676","2","2","3","","4","0","2","3","1","0","4","4","0","1","0","0","6","6","0","6","6","0","6","2","5","6","0","6","6","6","0","5","6","5","3","2","1","0","0","2","1","3","0","5","5","4","5","5","6","1","6","6","6","5","5","6","6","6","5","3","5","3","2","2","2","agree","788.5","","","","","","","","<div style=""font-size:60px;"">?</div>","76","7","1","0.8"
"image-keyboard-response","48","613860","0.0-11.0-0.7","3eshmejk9mt51go","1","6110b60fcd15f143b1ec157e","21","07/2000","Single","English","French","Female","White or Caucasian","No","High School","Yes, Undergraduate studies","N/A","N/A","N/A","5","2","4","2","3","0.883333338","stim/H230.jpg","76","76","0.766666676","2","2","3","","4","0","2","3","1","0","4","4","0","1","0","0","6","6","0","6","6","0","6","2","5","6","0","6","6","6","0","5","6","5","3","2","1","0","0","2","1","3","0","5","5","4","5","5","6","1","6","6","6","5","5","6","6","6","5","3","5","3","2","2","2","agree","null","","","","","","","","stim/T120.jpg","null","","",""
"html-keyboard-response","49","614624","0.0-11.0-1.7","3eshmejk9mt51go","1","6110b60fcd15f143b1ec157e","21","07/2000","Single","English","French","Female","White or Caucasian","No","High School","Yes, Undergraduate studies","N/A","N/A","N/A","5","2","4","2","3","0.883333338","stim/H230.jpg","76","76","0.766666676","2","2","3","","4","0","2","3","1","0","4","4","0","1","0","0","6","6","0","6","6","0","6","2","5","6","0","6","6","6","0","5","6","5","3","2","1","0","0","2","1","3","0","5","5","4","5","5","6","1","6","6","6","5","5","6","6","6","5","3","5","3","2","2","2","agree","762.6000000238419","","","","","","","","<div style=""font-size:60px;"">?</div>","65","8","1","0.8"
"image-keyboard-response","50","615653","0.0-11.0-0.8","3eshmejk9mt51go","1","6110b60fcd15f143b1ec157e","21","07/2000","Single","English","French","Female","White or Caucasian","No","High School","Yes, Undergraduate studies","N/A","N/A","N/A","5","2","4","2","3","0.883333338","stim/H230.jpg","76","76","0.766666676","2","2","3","","4","0","2","3","1","0","4","4","0","1","0","0","6","6","0","6","6","0","6","2","5","6","0","6","6","6","0","5","6","5","3","2","1","0","0","2","1","3","0","5","5","4","5","5","6","1","6","6","6","5","5","6","6","6","5","3","5","3","2","2","2","agree","null","","","","","","","","stim/H280.jpg","null","","",""
"html-keyboard-response","51","616267","0.0-11.0-1.8","3eshmejk9mt51go","1","6110b60fcd15f143b1ec157e","21","07/2000","Single","English","French","Female","White or Caucasian","No","High School","Yes, Undergraduate studies","N/A","N/A","N/A","5","2","4","2","3","0.883333338","stim/H230.jpg","76","76","0.766666676","2","2","3","","4","0","2","3","1","0","4","4","0","1","0","0","6","6","0","6","6","0","6","2","5","6","0","6","6","6","0","5","6","5","3","2","1","0","0","2","1","3","0","5","5","4","5","5","6","1","6","6","6","5","5","6","6","6","5","3","5","3","2","2","2","agree","612.3999999761581","","","","","","","","<div style=""font-size:60px;"">?</div>","76","9","1","0.8"
"image-keyboard-response","52","617291","0.0-11.0-0.9","3eshmejk9mt51go","1","6110b60fcd15f143b1ec157e","21","07/2000","Single","English","French","Female","White or Caucasian","No","High School","Yes, Undergraduate studies","N/A","N/A","N/A","5","2","4","2","3","0.883333338","stim/H230.jpg","76","76","0.766666676","2","2","3","","4","0","2","3","1","0","4","4","0","1","0","0","6","6","0","6","6","0","6","2","5","6","0","6","6","6","0","5","6","5","3","2","1","0","0","2","1","3","0","5","5","4","5","5","6","1","6","6","6","5","5","6","6","6","5","3","5","3","2","2","2","agree","null","","","","","","","","stim/T140.jpg","null","","",""
"html-keyboard-response","53","618011","0.0-11.0-1.9","3eshmejk9mt51go","1","6110b60fcd15f143b1ec157e","21","07/2000","Single","English","French","Female","White or Caucasian","No","High School","Yes, Undergraduate studies","N/A","N/A","N/A","5","2","4","2","3","0.883333338","stim/H230.jpg","76","76","0.766666676","2","2","3","","4","0","2","3","1","0","4","4","0","1","0","0","6","6","0","6","6","0","6","2","5","6","0","6","6","6","0","5","6","5","3","2","1","0","0","2","1","3","0","5","5","4","5","5","6","1","6","6","6","5","5","6","6","6","5","3","5","3","2","2","2","agree","718.3999999761581","","","","","","","","<div style=""font-size:60px;"">?</div>","65","10","1","0.8"
"image-keyboard-response","54","619041","0.0-11.0-0.10","3eshmejk9mt51go","1","6110b60fcd15f143b1ec157e","21","07/2000","Single","English","French","Female","White or Caucasian","No","High School","Yes, Undergraduate studies","N/A","N/A","N/A","5","2","4","2","3","0.883333338","stim/H230.jpg","76","76","0.766666676","2","2","3","","4","0","2","3","1","0","4","4","0","1","0","0","6","6","0","6","6","0","6","2","5","6","0","6","6","6","0","5","6","5","3","2","1","0","0","2","1","3","0","5","5","4","5","5","6","1","6","6","6","5","5","6","6","6","5","3","5","3","2","2","2","agree","null","","","","","","","","stim/H170.jpg","null","","",""
"html-keyboard-response","55","619760","0.0-11.0-1.10","3eshmejk9mt51go","1","6110b60fcd15f143b1ec157e","21","07/2000","Single","English","French","Female","White or Caucasian","No","High School","Yes, Undergraduate studies","N/A","N/A","N/A","5","2","4","2","3","0.883333338","stim/H230.jpg","76","76","0.766666676","2","2","3","","4","0","2","3","1","0","4","4","0","1","0","0","6","6","0","6","6","0","6","2","5","6","0","6","6","6","0","5","6","5","3","2","1","0","0","2","1","3","0","5","5","4","5","5","6","1","6","6","6","5","5","6","6","6","5","3","5","3","2","2","2","agree","717.2999999523163","","","","","","","","<div style=""font-size:60px;"">?</div>","76","11","1","0.8"
"image-keyboard-response","56","620787","0.0-11.0-0.11","3eshmejk9mt51go","1","6110b60fcd15f143b1ec157e","21","07/2000","Single","English","French","Female","White or Caucasian","No","High School","Yes, Undergraduate studies","N/A","N/A","N/A","5","2","4","2","3","0.883333338","stim/H230.jpg","76","76","0.766666676","2","2","3","","4","0","2","3","1","0","4","4","0","1","0","0","6","6","0","6","6","0","6","2","5","6","0","6","6","6","0","5","6","5","3","2","1","0","0","2","1","3","0","5","5","4","5","5","6","1","6","6","6","5","5","6","6","6","5","3","5","3","2","2","2","agree","null","","","","","","","","stim/H130.jpg","null","","",""
"html-keyboard-response","57","621575","0.0-11.0-1.11","3eshmejk9mt51go","1","6110b60fcd15f143b1ec157e","21","07/2000","Single","English","French","Female","White or Caucasian","No","High School","Yes, Undergraduate studies","N/A","N/A","N/A","5","2","4","2","3","0.883333338","stim/H230.jpg","76","76","0.766666676","2","2","3","","4","0","2","3","1","0","4","4","0","1","0","0","6","6","0","6","6","0","6","2","5","6","0","6","6","6","0","5","6","5","3","2","1","0","0","2","1","3","0","5","5","4","5","5","6","1","6","6","6","5","5","6","6","6","5","3","5","3","2","2","2","agree","786.7000000476837","","","","","","","","<div style=""font-size:60px;"">?</div>","76","12","1","0.8"
"image-keyboard-response","58","622584","0.0-11.0-0.12","3eshmejk9mt51go","1","6110b60fcd15f143b1ec157e","21","07/2000","Single","English","French","Female","White or Caucasian","No","High School","Yes, Undergraduate studies","N/A","N/A","N/A","5","2","4","2","3","0.883333338","stim/H230.jpg","76","76","0.766666676","2","2","3","","4","0","2","3","1","0","4","4","0","1","0","0","6","6","0","6","6","0","6","2","5","6","0","6","6","6","0","5","6","5","3","2","1","0","0","2","1","3","0","5","5","4","5","5","6","1","6","6","6","5","5","6","6","6","5","3","5","3","2","2","2","agree","null","","","","","","","","stim/H150.jpg","null","","",""
"html-keyboard-response","59","623369","0.0-11.0-1.12","3eshmejk9mt51go","1","6110b60fcd15f143b1ec157e","21","07/2000","Single","English","French","Female","White or Caucasian","No","High School","Yes, Undergraduate studies","N/A","N/A","N/A","5","2","4","2","3","0.883333338","stim/H230.jpg","76","76","0.766666676","2","2","3","","4","0","2","3","1","0","4","4","0","1","0","0","6","6","0","6","6","0","6","2","5","6","0","6","6","6","0","5","6","5","3","2","1","0","0","2","1","3","0","5","5","4","5","5","6","1","6","6","6","5","5","6","6","6","5","3","5","3","2","2","2","agree","783.7000000476837","","","","","","","","<div style=""font-size:60px;"">?</div>","76","13","1","0.8"
"image-keyboard-response","60","624378","0.0-11.0-0.13","3eshmejk9mt51go","1","6110b60fcd15f143b1ec157e","21","07/2000","Single","English","French","Female","White or Caucasian","No","High School","Yes, Undergraduate studies","N/A","N/A","N/A","5","2","4","2","3","0.883333338","stim/H230.jpg","76","76","0.766666676","2","2","3","","4","0","2","3","1","0","4","4","0","1","0","0","6","6","0","6","6","0","6","2","5","6","0","6","6","6","0","5","6","5","3","2","1","0","0","2","1","3","0","5","5","4","5","5","6","1","6","6","6","5","5","6","6","6","5","3","5","3","2","2","2","agree","null","","","","","","","","stim/H060.jpg","null","","",""
"html-keyboard-response","61","625444","0.0-11.0-1.13","3eshmejk9mt51go","1","6110b60fcd15f143b1ec157e","21","07/2000","Single","English","French","Female","White or Caucasian","No","High School","Yes, Undergraduate studies","N/A","N/A","N/A","5","2","4","2","3","0.883333338","stim/H230.jpg","76","76","0.766666676","2","2","3","","4","0","2","3","1","0","4","4","0","1","0","0","6","6","0","6","6","0","6","2","5","6","0","6","6","6","0","5","6","5","3","2","1","0","0","2","1","3","0","5","5","4","5","5","6","1","6","6","6","5","5","6","6","6","5","3","5","3","2","2","2","agree","1065.5","","","","","","","","<div style=""font-size:60px;"">?</div>","76","14","1","0.8"
"image-keyboard-response","62","626455","0.0-11.0-0.14","3eshmejk9mt51go","1","6110b60fcd15f143b1ec157e","21","07/2000","Single","English","French","Female","White or Caucasian","No","High School","Yes, Undergraduate studies","N/A","N/A","N/A","5","2","4","2","3","0.883333338","stim/H230.jpg","76","76","0.766666676","2","2","3","","4","0","2","3","1","0","4","4","0","1","0","0","6","6","0","6","6","0","6","2","5","6","0","6","6","6","0","5","6","5","3","2","1","0","0","2","1","3","0","5","5","4","5","5","6","1","6","6","6","5","5","6","6","6","5","3","5","3","2","2","2","agree","null","","","","","","","","stim/H170.jpg","null","","",""
"html-keyboard-response","63","627249","0.0-11.0-1.14","3eshmejk9mt51go","1","6110b60fcd15f143b1ec157e","21","07/2000","Single","English","French","Female","White or Caucasian","No","High School","Yes, Undergraduate studies","N/A","N/A","N/A","5","2","4","2","3","0.883333338","stim/H230.jpg","76","76","0.766666676","2","2","3","","4","0","2","3","1","0","4","4","0","1","0","0","6","6","0","6","6","0","6","2","5","6","0","6","6","6","0","5","6","5","3","2","1","0","0","2","1","3","0","5","5","4","5","5","6","1","6","6","6","5","5","6","6","6","5","3","5","3","2","2","2","agree","793","","","","","","","","<div style=""font-size:60px;"">?</div>","76","15","1","0.8"
"image-keyboard-response","64","628258","0.0-11.0-0.15","3eshmejk9mt51go","1","6110b60fcd15f143b1ec157e","21","07/2000","Single","English","French","Female","White or Caucasian","No","High School","Yes, Undergraduate studies","N/A","N/A","N/A","5","2","4","2","3","0.883333338","stim/H230.jpg","76","76","0.766666676","2","2","3","","4","0","2","3","1","0","4","4","0","1","0","0","6","6","0","6","6","0","6","2","5","6","0","6","6","6","0","5","6","5","3","2","1","0","0","2","1","3","0","5","5","4","5","5","6","1","6","6","6","5","5","6","6","6","5","3","5","3","2","2","2","agree","null","","","","","","","","stim/H200.jpg","null","","",""
"html-keyboard-response","65","628925","0.0-11.0-1.15","3eshmejk9mt51go","1","6110b60fcd15f143b1ec157e","21","07/2000","Single","English","French","Female","White or Caucasian","No","High School","Yes, Undergraduate studies","N/A","N/A","N/A","5","2","4","2","3","0.883333338","stim/H230.jpg","76","76","0.766666676","2","2","3","","4","0","2","3","1","0","4","4","0","1","0","0","6","6","0","6","6","0","6","2","5","6","0","6","6","6","0","5","6","5","3","2","1","0","0","2","1","3","0","5","5","4","5","5","6","1","6","6","6","5","5","6","6","6","5","3","5","3","2","2","2","agree","666.5","","","","","","","","<div style=""font-size:60px;"">?</div>","76","16","1","0.8"
"image-keyboard-response","66","629940","0.0-11.0-0.16","3eshmejk9mt51go","1","6110b60fcd15f143b1ec157e","21","07/2000","Single","English","French","Female","White or Caucasian","No","High School","Yes, Undergraduate studies","N/A","N/A","N/A","5","2","4","2","3","0.883333338","stim/H230.jpg","76","76","0.766666676","2","2","3","","4","0","2","3","1","0","4","4","0","1","0","0","6","6","0","6","6","0","6","2","5","6","0","6","6","6","0","5","6","5","3","2","1","0","0","2","1","3","0","5","5","4","5","5","6","1","6","6","6","5","5","6","6","6","5","3","5","3","2","2","2","agree","null","","","","","","","","stim/T110.jpg","null","","",""
"html-keyboard-response","67","630547","0.0-11.0-1.16","3eshmejk9mt51go","1","6110b60fcd15f143b1ec157e","21","07/2000","Single","English","French","Female","White or Caucasian","No","High School","Yes, Undergraduate studies","N/A","N/A","N/A","5","2","4","2","3","0.883333338","stim/H230.jpg","76","76","0.766666676","2","2","3","","4","0","2","3","1","0","4","4","0","1","0","0","6","6","0","6","6","0","6","2","5","6","0","6","6","6","0","5","6","5","3","2","1","0","0","2","1","3","0","5","5","4","5","5","6","1","6","6","6","5","5","6","6","6","5","3","5","3","2","2","2","agree","605","","","","","","","","<div style=""font-size:60px;"">?</div>","65","17","1","0.8"
"image-keyboard-response","68","631565","0.0-11.0-0.17","3eshmejk9mt51go","1","6110b60fcd15f143b1ec157e","21","07/2000","Single","English","French","Female","White or Caucasian","No","High School","Yes, Undergraduate studies","N/A","N/A","N/A","5","2","4","2","3","0.883333338","stim/H230.jpg","76","76","0.766666676","2","2","3","","4","0","2","3","1","0","4","4","0","1","0","0","6","6","0","6","6","0","6","2","5","6","0","6","6","6","0","5","6","5","3","2","1","0","0","2","1","3","0","5","5","4","5","5","6","1","6","6","6","5","5","6","6","6","5","3","5","3","2","2","2","agree","null","","","","","","","","stim/H130.jpg","null","","",""
"html-keyboard-response","69","632340","0.0-11.0-1.17","3eshmejk9mt51go","1","6110b60fcd15f143b1ec157e","21","07/2000","Single","English","French","Female","White or Caucasian","No","High School","Yes, Undergraduate studies","N/A","N/A","N/A","5","2","4","2","3","0.883333338","stim/H230.jpg","76","76","0.766666676","2","2","3","","4","0","2","3","1","0","4","4","0","1","0","0","6","6","0","6","6","0","6","2","5","6","0","6","6","6","0","5","6","5","3","2","1","0","0","2","1","3","0","5","5","4","5","5","6","1","6","6","6","5","5","6","6","6","5","3","5","3","2","2","2","agree","773.2000000476837","","","","","","","","<div style=""font-size:60px;"">?</div>","76","18","1","0.8"
"image-keyboard-response","70","633374","0.0-11.0-0.18","3eshmejk9mt51go","1","6110b60fcd15f143b1ec157e","21","07/2000","Single","English","French","Female","White or Caucasian","No","High School","Yes, Undergraduate studies","N/A","N/A","N/A","5","2","4","2","3","0.883333338","stim/H230.jpg","76","76","0.766666676","2","2","3","","4","0","2","3","1","0","4","4","0","1","0","0","6","6","0","6","6","0","6","2","5","6","0","6","6","6","0","5","6","5","3","2","1","0","0","2","1","3","0","5","5","4","5","5","6","1","6","6","6","5","5","6","6","6","5","3","5","3","2","2","2","agree","null","","","","","","","","stim/H070.jpg","null","","",""
"html-keyboard-response","71","634191","0.0-11.0-1.18","3eshmejk9mt51go","1","6110b60fcd15f143b1ec157e","21","07/2000","Single","English","French","Female","White or Caucasian","No","High School","Yes, Undergraduate studies","N/A","N/A","N/A","5","2","4","2","3","0.883333338","stim/H230.jpg","76","76","0.766666676","2","2","3","","4","0","2","3","1","0","4","4","0","1","0","0","6","6","0","6","6","0","6","2","5","6","0","6","6","6","0","5","6","5","3","2","1","0","0","2","1","3","0","5","5","4","5","5","6","1","6","6","6","5","5","6","6","6","5","3","5","3","2","2","2","agree","816.3999999761581","","","","","","","","<div style=""font-size:60px;"">?</div>","65","19","1","0.8"
"image-keyboard-response","72","635204","0.0-11.0-0.19","3eshmejk9mt51go","1","6110b60fcd15f143b1ec157e","21","07/2000","Single","English","French","Female","White or Caucasian","No","High School","Yes, Undergraduate studies","N/A","N/A","N/A","5","2","4","2","3","0.883333338","stim/H230.jpg","76","76","0.766666676","2","2","3","","4","0","2","3","1","0","4","4","0","1","0","0","6","6","0","6","6","0","6","2","5","6","0","6","6","6","0","5","6","5","3","2","1","0","0","2","1","3","0","5","5","4","5","5","6","1","6","6","6","5","5","6","6","6","5","3","5","3","2","2","2","agree","null","","","","","","","","stim/H070.jpg","null","","",""
"html-keyboard-response","73","635973","0.0-11.0-1.19","3eshmejk9mt51go","1","6110b60fcd15f143b1ec157e","21","07/2000","Single","English","French","Female","White or Caucasian","No","High School","Yes, Undergraduate studies","N/A","N/A","N/A","5","2","4","2","3","0.883333338","stim/H230.jpg","76","76","0.766666676","2","2","3","","4","0","2","3","1","0","4","4","0","1","0","0","6","6","0","6","6","0","6","2","5","6","0","6","6","6","0","5","6","5","3","2","1","0","0","2","1","3","0","5","5","4","5","5","6","1","6","6","6","5","5","6","6","6","5","3","5","3","2","2","2","agree","767.7999999523163","","","","","","","","<div style=""font-size:60px;"">?</div>","65","20","1","0.8"
"image-keyboard-response","74","637006","0.0-11.0-0.20","3eshmejk9mt51go","1","6110b60fcd15f143b1ec157e","21","07/2000","Single","English","French","Female","White or Caucasian","No","High School","Yes, Undergraduate studies","N/A","N/A","N/A","5","2","4","2","3","0.883333338","stim/H230.jpg","76","76","0.766666676","2","2","3","","4","0","2","3","1","0","4","4","0","1","0","0","6","6","0","6","6","0","6","2","5","6","0","6","6","6","0","5","6","5","3","2","1","0","0","2","1","3","0","5","5","4","5","5","6","1","6","6","6","5","5","6","6","6","5","3","5","3","2","2","2","agree","null","","","","","","","","stim/H070.jpg","null","","",""
"html-keyboard-response","75","637764","0.0-11.0-1.20","3eshmejk9mt51go","1","6110b60fcd15f143b1ec157e","21","07/2000","Single","English","French","Female","White or Caucasian","No","High School","Yes, Undergraduate studies","N/A","N/A","N/A","5","2","4","2","3","0.883333338","stim/H230.jpg","76","76","0.766666676","2","2","3","","4","0","2","3","1","0","4","4","0","1","0","0","6","6","0","6","6","0","6","2","5","6","0","6","6","6","0","5","6","5","3","2","1","0","0","2","1","3","0","5","5","4","5","5","6","1","6","6","6","5","5","6","6","6","5","3","5","3","2","2","2","agree","756.5","","","","","","","","<div style=""font-size:60px;"">?</div>","65","21","1","0.8"
"image-keyboard-response","76","638774","0.0-11.0-0.21","3eshmejk9mt51go","1","6110b60fcd15f143b1ec157e","21","07/2000","Single","English","French","Female","White or Caucasian","No","High School","Yes, Undergraduate studies","N/A","N/A","N/A","5","2","4","2","3","0.883333338","stim/H230.jpg","76","76","0.766666676","2","2","3","","4","0","2","3","1","0","4","4","0","1","0","0","6","6","0","6","6","0","6","2","5","6","0","6","6","6","0","5","6","5","3","2","1","0","0","2","1","3","0","5","5","4","5","5","6","1","6","6","6","5","5","6","6","6","5","3","5","3","2","2","2","agree","null","","","","","","","","stim/H260.jpg","null","","",""
"html-keyboard-response","77","639341","0.0-11.0-1.21","3eshmejk9mt51go","1","6110b60fcd15f143b1ec157e","21","07/2000","Single","English","French","Female","White or Caucasian","No","High School","Yes, Undergraduate studies","N/A","N/A","N/A","5","2","4","2","3","0.883333338","stim/H230.jpg","76","76","0.766666676","2","2","3","","4","0","2","3","1","0","4","4","0","1","0","0","6","6","0","6","6","0","6","2","5","6","0","6","6","6","0","5","6","5","3","2","1","0","0","2","1","3","0","5","5","4","5","5","6","1","6","6","6","5","5","6","6","6","5","3","5","3","2","2","2","agree","567.1000000238419","","","","","","","","<div style=""font-size:60px;"">?</div>","76","22","1","0.8"
"image-keyboard-response","78","640354","0.0-11.0-0.22","3eshmejk9mt51go","1","6110b60fcd15f143b1ec157e","21","07/2000","Single","English","French","Female","White or Caucasian","No","High School","Yes, Undergraduate studies","N/A","N/A","N/A","5","2","4","2","3","0.883333338","stim/H230.jpg","76","76","0.766666676","2","2","3","","4","0","2","3","1","0","4","4","0","1","0","0","6","6","0","6","6","0","6","2","5","6","0","6","6","6","0","5","6","5","3","2","1","0","0","2","1","3","0","5","5","4","5","5","6","1","6","6","6","5","5","6","6","6","5","3","5","3","2","2","2","agree","null","","","","","","","","stim/T240.jpg","null","","",""
"html-keyboard-response","79","640964","0.0-11.0-1.22","3eshmejk9mt51go","1","6110b60fcd15f143b1ec157e","21","07/2000","Single","English","French","Female","White or Caucasian","No","High School","Yes, Undergraduate studies","N/A","N/A","N/A","5","2","4","2","3","0.883333338","stim/H230.jpg","76","76","0.766666676","2","2","3","","4","0","2","3","1","0","4","4","0","1","0","0","6","6","0","6","6","0","6","2","5","6","0","6","6","6","0","5","6","5","3","2","1","0","0","2","1","3","0","5","5","4","5","5","6","1","6","6","6","5","5","6","6","6","5","3","5","3","2","2","2","agree","608","","","","","","","","<div style=""font-size:60px;"">?</div>","65","23","1","0.8"
"image-keyboard-response","80","641978","0.0-11.0-0.23","3eshmejk9mt51go","1","6110b60fcd15f143b1ec157e","21","07/2000","Single","English","French","Female","White or Caucasian","No","High School","Yes, Undergraduate studies","N/A","N/A","N/A","5","2","4","2","3","0.883333338","stim/H230.jpg","76","76","0.766666676","2","2","3","","4","0","2","3","1","0","4","4","0","1","0","0","6","6","0","6","6","0","6","2","5","6","0","6","6","6","0","5","6","5","3","2","1","0","0","2","1","3","0","5","5","4","5","5","6","1","6","6","6","5","5","6","6","6","5","3","5","3","2","2","2","agree","null","","","","","","","","stim/H300.jpg","null","","",""
"html-keyboard-response","81","642624","0.0-11.0-1.23","3eshmejk9mt51go","1","6110b60fcd15f143b1ec157e","21","07/2000","Single","English","French","Female","White or Caucasian","No","High School","Yes, Undergraduate studies","N/A","N/A","N/A","5","2","4","2","3","0.883333338","stim/H230.jpg","76","76","0.766666676","2","2","3","","4","0","2","3","1","0","4","4","0","1","0","0","6","6","0","6","6","0","6","2","5","6","0","6","6","6","0","5","6","5","3","2","1","0","0","2","1","3","0","5","5","4","5","5","6","1","6","6","6","5","5","6","6","6","5","3","5","3","2","2","2","agree","644.1000000238419","","","","","","","","<div style=""font-size:60px;"">?</div>","76","24","1","0.8"
"image-keyboard-response","82","643650","0.0-11.0-0.24","3eshmejk9mt51go","1","6110b60fcd15f143b1ec157e","21","07/2000","Single","English","French","Female","White or Caucasian","No","High School","Yes, Undergraduate studies","N/A","N/A","N/A","5","2","4","2","3","0.883333338","stim/H230.jpg","76","76","0.766666676","2","2","3","","4","0","2","3","1","0","4","4","0","1","0","0","6","6","0","6","6","0","6","2","5","6","0","6","6","6","0","5","6","5","3","2","1","0","0","2","1","3","0","5","5","4","5","5","6","1","6","6","6","5","5","6","6","6","5","3","5","3","2","2","2","agree","null","","","","","","","","stim/H170.jpg","null","","",""
"html-keyboard-response","83","644214","0.0-11.0-1.24","3eshmejk9mt51go","1","6110b60fcd15f143b1ec157e","21","07/2000","Single","English","French","Female","White or Caucasian","No","High School","Yes, Undergraduate studies","N/A","N/A","N/A","5","2","4","2","3","0.883333338","stim/H230.jpg","76","76","0.766666676","2","2","3","","4","0","2","3","1","0","4","4","0","1","0","0","6","6","0","6","6","0","6","2","5","6","0","6","6","6","0","5","6","5","3","2","1","0","0","2","1","3","0","5","5","4","5","5","6","1","6","6","6","5","5","6","6","6","5","3","5","3","2","2","2","agree","563","","","","","","","","<div style=""font-size:60px;"">?</div>","76","25","1","0.8"
"image-keyboard-response","84","645244","0.0-11.0-0.25","3eshmejk9mt51go","1","6110b60fcd15f143b1ec157e","21","07/2000","Single","English","French","Female","White or Caucasian","No","High School","Yes, Undergraduate studies","N/A","N/A","N/A","5","2","4","2","3","0.883333338","stim/H230.jpg","76","76","0.766666676","2","2","3","","4","0","2","3","1","0","4","4","0","1","0","0","6","6","0","6","6","0","6","2","5","6","0","6","6","6","0","5","6","5","3","2","1","0","0","2","1","3","0","5","5","4","5","5","6","1","6","6","6","5","5","6","6","6","5","3","5","3","2","2","2","agree","null","","","","","","","","stim/H120.jpg","null","","",""
"html-keyboard-response","85","646091","0.0-11.0-1.25","3eshmejk9mt51go","1","6110b60fcd15f143b1ec157e","21","07/2000","Single","English","French","Female","White or Caucasian","No","High School","Yes, Undergraduate studies","N/A","N/A","N/A","5","2","4","2","3","0.883333338","stim/H230.jpg","76","76","0.766666676","2","2","3","","4","0","2","3","1","0","4","4","0","1","0","0","6","6","0","6","6","0","6","2","5","6","0","6","6","6","0","5","6","5","3","2","1","0","0","2","1","3","0","5","5","4","5","5","6","1","6","6","6","5","5","6","6","6","5","3","5","3","2","2","2","agree","843.7999999523163","","","","","","","","<div style=""font-size:60px;"">?</div>","76","26","1","0.8"
"image-keyboard-response","86","647115","0.0-11.0-0.26","3eshmejk9mt51go","1","6110b60fcd15f143b1ec157e","21","07/2000","Single","English","French","Female","White or Caucasian","No","High School","Yes, Undergraduate studies","N/A","N/A","N/A","5","2","4","2","3","0.883333338","stim/H230.jpg","76","76","0.766666676","2","2","3","","4","0","2","3","1","0","4","4","0","1","0","0","6","6","0","6","6","0","6","2","5","6","0","6","6","6","0","5","6","5","3","2","1","0","0","2","1","3","0","5","5","4","5","5","6","1","6","6","6","5","5","6","6","6","5","3","5","3","2","2","2","agree","null","","","","","","","","stim/H050.jpg","null","","",""
"html-keyboard-response","87","647678","0.0-11.0-1.26","3eshmejk9mt51go","1","6110b60fcd15f143b1ec157e","21","07/2000","Single","English","French","Female","White or Caucasian","No","High School","Yes, Undergraduate studies","N/A","N/A","N/A","5","2","4","2","3","0.883333338","stim/H230.jpg","76","76","0.766666676","2","2","3","","4","0","2","3","1","0","4","4","0","1","0","0","6","6","0","6","6","0","6","2","5","6","0","6","6","6","0","5","6","5","3","2","1","0","0","2","1","3","0","5","5","4","5","5","6","1","6","6","6","5","5","6","6","6","5","3","5","3","2","2","2","agree","561.5","","","","","","","","<div style=""font-size:60px;"">?</div>","65","27","1","0.8"
"image-keyboard-response","88","648703","0.0-11.0-0.27","3eshmejk9mt51go","1","6110b60fcd15f143b1ec157e","21","07/2000","Single","English","French","Female","White or Caucasian","No","High School","Yes, Undergraduate studies","N/A","N/A","N/A","5","2","4","2","3","0.883333338","stim/H230.jpg","76","76","0.766666676","2","2","3","","4","0","2","3","1","0","4","4","0","1","0","0","6","6","0","6","6","0","6","2","5","6","0","6","6","6","0","5","6","5","3","2","1","0","0","2","1","3","0","5","5","4","5","5","6","1","6","6","6","5","5","6","6","6","5","3","5","3","2","2","2","agree","null","","","","","","","","stim/H040.jpg","null","","",""
"html-keyboard-response","89","649226","0.0-11.0-1.27","3eshmejk9mt51go","1","6110b60fcd15f143b1ec157e","21","07/2000","Single","English","French","Female","White or Caucasian","No","High School","Yes, Undergraduate studies","N/A","N/A","N/A","5","2","4","2","3","0.883333338","stim/H230.jpg","76","76","0.766666676","2","2","3","","4","0","2","3","1","0","4","4","0","1","0","0","6","6","0","6","6","0","6","2","5","6","0","6","6","6","0","5","6","5","3","2","1","0","0","2","1","3","0","5","5","4","5","5","6","1","6","6","6","5","5","6","6","6","5","3","5","3","2","2","2","agree","520.5","","","","","","","","<div style=""font-size:60px;"">?</div>","65","28","1","0.8"
"image-keyboard-response","90","650253","0.0-11.0-0.28","3eshmejk9mt51go","1","6110b60fcd15f143b1ec157e","21","07/2000","Single","English","French","Female","White or Caucasian","No","High School","Yes, Undergraduate studies","N/A","N/A","N/A","5","2","4","2","3","0.883333338","stim/H230.jpg","76","76","0.766666676","2","2","3","","4","0","2","3","1","0","4","4","0","1","0","0","6","6","0","6","6","0","6","2","5","6","0","6","6","6","0","5","6","5","3","2","1","0","0","2","1","3","0","5","5","4","5","5","6","1","6","6","6","5","5","6","6","6","5","3","5","3","2","2","2","agree","null","","","","","","","","stim/H220.jpg","null","","",""
"html-keyboard-response","91","650778","0.0-11.0-1.28","3eshmejk9mt51go","1","6110b60fcd15f143b1ec157e","21","07/2000","Single","English","French","Female","White or Caucasian","No","High School","Yes, Undergraduate studies","N/A","N/A","N/A","5","2","4","2","3","0.883333338","stim/H230.jpg","76","76","0.766666676","2","2","3","","4","0","2","3","1","0","4","4","0","1","0","0","6","6","0","6","6","0","6","2","5","6","0","6","6","6","0","5","6","5","3","2","1","0","0","2","1","3","0","5","5","4","5","5","6","1","6","6","6","5","5","6","6","6","5","3","5","3","2","2","2","agree","523.1999999284744","","","","","","","","<div style=""font-size:60px;"">?</div>","76","29","1","0.8"
"image-keyboard-response","92","651784","0.0-11.0-0.29","3eshmejk9mt51go","1","6110b60fcd15f143b1ec157e","21","07/2000","Single","English","French","Female","White or Caucasian","No","High School","Yes, Undergraduate studies","N/A","N/A","N/A","5","2","4","2","3","0.883333338","stim/H230.jpg","76","76","0.766666676","2","2","3","","4","0","2","3","1","0","4","4","0","1","0","0","6","6","0","6","6","0","6","2","5","6","0","6","6","6","0","5","6","5","3","2","1","0","0","2","1","3","0","5","5","4","5","5","6","1","6","6","6","5","5","6","6","6","5","3","5","3","2","2","2","agree","null","","","","","","","","stim/H270.jpg","null","","",""
"html-keyboard-response","93","652259","0.0-11.0-1.29","3eshmejk9mt51go","1","6110b60fcd15f143b1ec157e","21","07/2000","Single","English","French","Female","White or Caucasian","No","High School","Yes, Undergraduate studies","N/A","N/A","N/A","5","2","4","2","3","0.883333338","stim/H230.jpg","76","76","0.766666676","2","2","3","","4","0","2","3","1","0","4","4","0","1","0","0","6","6","0","6","6","0","6","2","5","6","0","6","6","6","0","5","6","5","3","2","1","0","0","2","1","3","0","5","5","4","5","5","6","1","6","6","6","5","5","6","6","6","5","3","5","3","2","2","2","agree","473","","","","","","","","<div style=""font-size:60px;"">?</div>","76","30","1","0.8"
"image-keyboard-response","94","653269","0.0-11.0-0.30","3eshmejk9mt51go","1","6110b60fcd15f143b1ec157e","21","07/2000","Single","English","French","Female","White or Caucasian","No","High School","Yes, Undergraduate studies","N/A","N/A","N/A","5","2","4","2","3","0.883333338","stim/H230.jpg","76","76","0.766666676","2","2","3","","4","0","2","3","1","0","4","4","0","1","0","0","6","6","0","6","6","0","6","2","5","6","0","6","6","6","0","5","6","5","3","2","1","0","0","2","1","3","0","5","5","4","5","5","6","1","6","6","6","5","5","6","6","6","5","3","5","3","2","2","2","agree","null","","","","","","","","stim/H170.jpg","null","","",""
"html-keyboard-response","95","653885","0.0-11.0-1.30","3eshmejk9mt51go","1","6110b60fcd15f143b1ec157e","21","07/2000","Single","English","French","Female","White or Caucasian","No","High School","Yes, Undergraduate studies","N/A","N/A","N/A","5","2","4","2","3","0.883333338","stim/H230.jpg","76","76","0.766666676","2","2","3","","4","0","2","3","1","0","4","4","0","1","0","0","6","6","0","6","6","0","6","2","5","6","0","6","6","6","0","5","6","5","3","2","1","0","0","2","1","3","0","5","5","4","5","5","6","1","6","6","6","5","5","6","6","6","5","3","5","3","2","2","2","agree","614.5","","","","","","","","<div style=""font-size:60px;"">?</div>","76","31","1","0.8"
"image-keyboard-response","96","654906","0.0-11.0-0.31","3eshmejk9mt51go","1","6110b60fcd15f143b1ec157e","21","07/2000","Single","English","French","Female","White or Caucasian","No","High School","Yes, Undergraduate studies","N/A","N/A","N/A","5","2","4","2","3","0.883333338","stim/H230.jpg","76","76","0.766666676","2","2","3","","4","0","2","3","1","0","4","4","0","1","0","0","6","6","0","6","6","0","6","2","5","6","0","6","6","6","0","5","6","5","3","2","1","0","0","2","1","3","0","5","5","4","5","5","6","1","6","6","6","5","5","6","6","6","5","3","5","3","2","2","2","agree","null","","","","","","","","stim/H080.jpg","null","","",""
"html-keyboard-response","97","655378","0.0-11.0-1.31","3eshmejk9mt51go","1","6110b60fcd15f143b1ec157e","21","07/2000","Single","English","French","Female","White or Caucasian","No","High School","Yes, Undergraduate studies","N/A","N/A","N/A","5","2","4","2","3","0.883333338","stim/H230.jpg","76","76","0.766666676","2","2","3","","4","0","2","3","1","0","4","4","0","1","0","0","6","6","0","6","6","0","6","2","5","6","0","6","6","6","0","5","6","5","3","2","1","0","0","2","1","3","0","5","5","4","5","5","6","1","6","6","6","5","5","6","6","6","5","3","5","3","2","2","2","agree","471","","","","","","","","<div style=""font-size:60px;"">?</div>","65","32","1","0.8"
"image-keyboard-response","98","656389","0.0-11.0-0.32","3eshmejk9mt51go","1","6110b60fcd15f143b1ec157e","21","07/2000","Single","English","French","Female","White or Caucasian","No","High School","Yes, Undergraduate studies","N/A","N/A","N/A","5","2","4","2","3","0.883333338","stim/H230.jpg","76","76","0.766666676","2","2","3","","4","0","2","3","1","0","4","4","0","1","0","0","6","6","0","6","6","0","6","2","5","6","0","6","6","6","0","5","6","5","3","2","1","0","0","2","1","3","0","5","5","4","5","5","6","1","6","6","6","5","5","6","6","6","5","3","5","3","2","2","2","agree","null","","","","","","","","stim/H080.jpg","null","","",""
"html-keyboard-response","99","657005","0.0-11.0-1.32","3eshmejk9mt51go","1","6110b60fcd15f143b1ec157e","21","07/2000","Single","English","French","Female","White or Caucasian","No","High School","Yes, Undergraduate studies","N/A","N/A","N/A","5","2","4","2","3","0.883333338","stim/H230.jpg","76","76","0.766666676","2","2","3","","4","0","2","3","1","0","4","4","0","1","0","0","6","6","0","6","6","0","6","2","5","6","0","6","6","6","0","5","6","5","3","2","1","0","0","2","1","3","0","5","5","4","5","5","6","1","6","6","6","5","5","6","6","6","5","3","5","3","2","2","2","agree","614.7999999523163","","","","","","","","<div style=""font-size:60px;"">?</div>","65","33","1","0.8"
"image-keyboard-response","100","658028","0.0-11.0-0.33","3eshmejk9mt51go","1","6110b60fcd15f143b1ec157e","21","07/2000","Single","English","French","Female","White or Caucasian","No","High School","Yes, Undergraduate studies","N/A","N/A","N/A","5","2","4","2","3","0.883333338","stim/H230.jpg","76","76","0.766666676","2","2","3","","4","0","2","3","1","0","4","4","0","1","0","0","6","6","0","6","6","0","6","2","5","6","0","6","6","6","0","5","6","5","3","2","1","0","0","2","1","3","0","5","5","4","5","5","6","1","6","6","6","5","5","6","6","6","5","3","5","3","2","2","2","agree","null","","","","","","","","stim/H250.jpg","null","","",""
"html-keyboard-response","101","658351","0.0-11.0-1.33","3eshmejk9mt51go","1","6110b60fcd15f143b1ec157e","21","07/2000","Single","English","French","Female","White or Caucasian","No","High School","Yes, Undergraduate studies","N/A","N/A","N/A","5","2","4","2","3","0.883333338","stim/H230.jpg","76","76","0.766666676","2","2","3","","4","0","2","3","1","0","4","4","0","1","0","0","6","6","0","6","6","0","6","2","5","6","0","6","6","6","0","5","6","5","3","2","1","0","0","2","1","3","0","5","5","4","5","5","6","1","6","6","6","5","5","6","6","6","5","3","5","3","2","2","2","agree","321","","","","","","","","<div style=""font-size:60px;"">?</div>","76","34","1","0.8"
"image-keyboard-response","102","659355","0.0-11.0-0.34","3eshmejk9mt51go","1","6110b60fcd15f143b1ec157e","21","07/2000","Single","English","French","Female","White or Caucasian","No","High School","Yes, Undergraduate studies","N/A","N/A","N/A","5","2","4","2","3","0.883333338","stim/H230.jpg","76","76","0.766666676","2","2","3","","4","0","2","3","1","0","4","4","0","1","0","0","6","6","0","6","6","0","6","2","5","6","0","6","6","6","0","5","6","5","3","2","1","0","0","2","1","3","0","5","5","4","5","5","6","1","6","6","6","5","5","6","6","6","5","3","5","3","2","2","2","agree","null","","","","","","","","stim/H250.jpg","null","","",""
"html-keyboard-response","103","659707","0.0-11.0-1.34","3eshmejk9mt51go","1","6110b60fcd15f143b1ec157e","21","07/2000","Single","English","French","Female","White or Caucasian","No","High School","Yes, Undergraduate studies","N/A","N/A","N/A","5","2","4","2","3","0.883333338","stim/H230.jpg","76","76","0.766666676","2","2","3","","4","0","2","3","1","0","4","4","0","1","0","0","6","6","0","6","6","0","6","2","5","6","0","6","6","6","0","5","6","5","3","2","1","0","0","2","1","3","0","5","5","4","5","5","6","1","6","6","6","5","5","6","6","6","5","3","5","3","2","2","2","agree","350.90000009536743","","","","","","","","<div style=""font-size:60px;"">?</div>","76","35","1","0.8"
"image-keyboard-response","104","660724","0.0-11.0-0.35","3eshmejk9mt51go","1","6110b60fcd15f143b1ec157e","21","07/2000","Single","English","French","Female","White or Caucasian","No","High School","Yes, Undergraduate studies","N/A","N/A","N/A","5","2","4","2","3","0.883333338","stim/H230.jpg","76","76","0.766666676","2","2","3","","4","0","2","3","1","0","4","4","0","1","0","0","6","6","0","6","6","0","6","2","5","6","0","6","6","6","0","5","6","5","3","2","1","0","0","2","1","3","0","5","5","4","5","5","6","1","6","6","6","5","5","6","6","6","5","3","5","3","2","2","2","agree","null","","","","","","","","stim/T130.jpg","null","","",""
"html-keyboard-response","105","661006","0.0-11.0-1.35","3eshmejk9mt51go","1","6110b60fcd15f143b1ec157e","21","07/2000","Single","English","French","Female","White or Caucasian","No","High School","Yes, Undergraduate studies","N/A","N/A","N/A","5","2","4","2","3","0.883333338","stim/H230.jpg","76","76","0.766666676","2","2","3","","4","0","2","3","1","0","4","4","0","1","0","0","6","6","0","6","6","0","6","2","5","6","0","6","6","6","0","5","6","5","3","2","1","0","0","2","1","3","0","5","5","4","5","5","6","1","6","6","6","5","5","6","6","6","5","3","5","3","2","2","2","agree","280.59999990463257","","","","","","","","<div style=""font-size:60px;"">?</div>","65","36","1","0.8"
"image-keyboard-response","106","662018","0.0-11.0-0.36","3eshmejk9mt51go","1","6110b60fcd15f143b1ec157e","21","07/2000","Single","English","French","Female","White or Caucasian","No","High School","Yes, Undergraduate studies","N/A","N/A","N/A","5","2","4","2","3","0.883333338","stim/H230.jpg","76","76","0.766666676","2","2","3","","4","0","2","3","1","0","4","4","0","1","0","0","6","6","0","6","6","0","6","2","5","6","0","6","6","6","0","5","6","5","3","2","1","0","0","2","1","3","0","5","5","4","5","5","6","1","6","6","6","5","5","6","6","6","5","3","5","3","2","2","2","agree","null","","","","","","","","stim/T060.jpg","null","","",""
"html-keyboard-response","107","662253","0.0-11.0-1.36","3eshmejk9mt51go","1","6110b60fcd15f143b1ec157e","21","07/2000","Single","English","French","Female","White or Caucasian","No","High School","Yes, Undergraduate studies","N/A","N/A","N/A","5","2","4","2","3","0.883333338","stim/H230.jpg","76","76","0.766666676","2","2","3","","4","0","2","3","1","0","4","4","0","1","0","0","6","6","0","6","6","0","6","2","5","6","0","6","6","6","0","5","6","5","3","2","1","0","0","2","1","3","0","5","5","4","5","5","6","1","6","6","6","5","5","6","6","6","5","3","5","3","2","2","2","agree","233.60000002384186","","","","","","","","<div style=""font-size:60px;"">?</div>","65","37","1","0.8"
"image-keyboard-response","108","663281","0.0-11.0-0.37","3eshmejk9mt51go","1","6110b60fcd15f143b1ec157e","21","07/2000","Single","English","French","Female","White or Caucasian","No","High School","Yes, Undergraduate studies","N/A","N/A","N/A","5","2","4","2","3","0.883333338","stim/H230.jpg","76","76","0.766666676","2","2","3","","4","0","2","3","1","0","4","4","0","1","0","0","6","6","0","6","6","0","6","2","5","6","0","6","6","6","0","5","6","5","3","2","1","0","0","2","1","3","0","5","5","4","5","5","6","1","6","6","6","5","5","6","6","6","5","3","5","3","2","2","2","agree","null","","","","","","","","stim/H130.jpg","null","","",""
"html-keyboard-response","109","663431","0.0-11.0-1.37","3eshmejk9mt51go","1","6110b60fcd15f143b1ec157e","21","07/2000","Single","English","French","Female","White or Caucasian","No","High School","Yes, Undergraduate studies","N/A","N/A","N/A","5","2","4","2","3","0.883333338","stim/H230.jpg","76","76","0.766666676","2","2","3","","4","0","2","3","1","0","4","4","0","1","0","0","6","6","0","6","6","0","6","2","5","6","0","6","6","6","0","5","6","5","3","2","1","0","0","2","1","3","0","5","5","4","5","5","6","1","6","6","6","5","5","6","6","6","5","3","5","3","2","2","2","agree","148.19999992847443","","","","","","","","<div style=""font-size:60px;"">?</div>","76","38","1","0.8"
"image-keyboard-response","110","664440","0.0-11.0-0.38","3eshmejk9mt51go","1","6110b60fcd15f143b1ec157e","21","07/2000","Single","English","French","Female","White or Caucasian","No","High School","Yes, Undergraduate studies","N/A","N/A","N/A","5","2","4","2","3","0.883333338","stim/H230.jpg","76","76","0.766666676","2","2","3","","4","0","2","3","1","0","4","4","0","1","0","0","6","6","0","6","6","0","6","2","5","6","0","6","6","6","0","5","6","5","3","2","1","0","0","2","1","3","0","5","5","4","5","5","6","1","6","6","6","5","5","6","6","6","5","3","5","3","2","2","2","agree","null","","","","","","","","stim/T020.jpg","null","","",""
"html-keyboard-response","111","664469","0.0-11.0-1.38","3eshmejk9mt51go","1","6110b60fcd15f143b1ec157e","21","07/2000","Single","English","French","Female","White or Caucasian","No","High School","Yes, Undergraduate studies","N/A","N/A","N/A","5","2","4","2","3","0.883333338","stim/H230.jpg","76","76","0.766666676","2","2","3","","4","0","2","3","1","0","4","4","0","1","0","0","6","6","0","6","6","0","6","2","5","6","0","6","6","6","0","5","6","5","3","2","1","0","0","2","1","3","0","5","5","4","5","5","6","1","6","6","6","5","5","6","6","6","5","3","5","3","2","2","2","agree","27.5","","","","","","","","<div style=""font-size:60px;"">?</div>","65","39","1","0.8"
"image-keyboard-response","112","665500","0.0-11.0-0.39","3eshmejk9mt51go","1","6110b60fcd15f143b1ec157e","21","07/2000","Single","English","French","Female","White or Caucasian","No","High School","Yes, Undergraduate studies","N/A","N/A","N/A","5","2","4","2","3","0.883333338","stim/H230.jpg","76","76","0.766666676","2","2","3","","4","0","2","3","1","0","4","4","0","1","0","0","6","6","0","6","6","0","6","2","5","6","0","6","6","6","0","5","6","5","3","2","1","0","0","2","1","3","0","5","5","4","5","5","6","1","6","6","6","5","5","6","6","6","5","3","5","3","2","2","2","agree","null","","","","","","","","stim/H080.jpg","null","","",""
"html-keyboard-response","113","665847","0.0-11.0-1.39","3eshmejk9mt51go","1","6110b60fcd15f143b1ec157e","21","07/2000","Single","English","French","Female","White or Caucasian","No","High School","Yes, Undergraduate studies","N/A","N/A","N/A","5","2","4","2","3","0.883333338","stim/H230.jpg","76","76","0.766666676","2","2","3","","4","0","2","3","1","0","4","4","0","1","0","0","6","6","0","6","6","0","6","2","5","6","0","6","6","6","0","5","6","5","3","2","1","0","0","2","1","3","0","5","5","4","5","5","6","1","6","6","6","5","5","6","6","6","5","3","5","3","2","2","2","agree","345.6999999284744","","","","","","","","<div style=""font-size:60px;"">?</div>","65","40","1","0.8"
"image-keyboard-response","114","666863","0.0-11.0-0.40","3eshmejk9mt51go","1","6110b60fcd15f143b1ec157e","21","07/2000","Single","English","French","Female","White or Caucasian","No","High School","Yes, Undergraduate studies","N/A","N/A","N/A","5","2","4","2","3","0.883333338","stim/H230.jpg","76","76","0.766666676","2","2","3","","4","0","2","3","1","0","4","4","0","1","0","0","6","6","0","6","6","0","6","2","5","6","0","6","6","6","0","5","6","5","3","2","1","0","0","2","1","3","0","5","5","4","5","5","6","1","6","6","6","5","5","6","6","6","5","3","5","3","2","2","2","agree","null","","","","","","","","stim/H190.jpg","null","","",""
"html-keyboard-response","115","667053","0.0-11.0-1.40","3eshmejk9mt51go","1","6110b60fcd15f143b1ec157e","21","07/2000","Single","English","French","Female","White or Caucasian","No","High School","Yes, Undergraduate studies","N/A","N/A","N/A","5","2","4","2","3","0.883333338","stim/H230.jpg","76","76","0.766666676","2","2","3","","4","0","2","3","1","0","4","4","0","1","0","0","6","6","0","6","6","0","6","2","5","6","0","6","6","6","0","5","6","5","3","2","1","0","0","2","1","3","0","5","5","4","5","5","6","1","6","6","6","5","5","6","6","6","5","3","5","3","2","2","2","agree","189.29999995231628","","","","","","","","<div style=""font-size:60px;"">?</div>","76","41","1","0.8"
"image-keyboard-response","116","668083","0.0-11.0-0.41","3eshmejk9mt51go","1","6110b60fcd15f143b1ec157e","21","07/2000","Single","English","French","Female","White or Caucasian","No","High School","Yes, Undergraduate studies","N/A","N/A","N/A","5","2","4","2","3","0.883333338","stim/H230.jpg","76","76","0.766666676","2","2","3","","4","0","2","3","1","0","4","4","0","1","0","0","6","6","0","6","6","0","6","2","5","6","0","6","6","6","0","5","6","5","3","2","1","0","0","2","1","3","0","5","5","4","5","5","6","1","6","6","6","5","5","6","6","6","5","3","5","3","2","2","2","agree","null","","","","","","","","stim/H220.jpg","null","","",""
"html-keyboard-response","117","668314","0.0-11.0-1.41","3eshmejk9mt51go","1","6110b60fcd15f143b1ec157e","21","07/2000","Single","English","French","Female","White or Caucasian","No","High School","Yes, Undergraduate studies","N/A","N/A","N/A","5","2","4","2","3","0.883333338","stim/H230.jpg","76","76","0.766666676","2","2","3","","4","0","2","3","1","0","4","4","0","1","0","0","6","6","0","6","6","0","6","2","5","6","0","6","6","6","0","5","6","5","3","2","1","0","0","2","1","3","0","5","5","4","5","5","6","1","6","6","6","5","5","6","6","6","5","3","5","3","2","2","2","agree","230.5","","","","","","","","<div style=""font-size:60px;"">?</div>","76","42","1","0.8"
"image-keyboard-response","118","669330","0.0-11.0-0.42","3eshmejk9mt51go","1","6110b60fcd15f143b1ec157e","21","07/2000","Single","English","French","Female","White or Caucasian","No","High School","Yes, Undergraduate studies","N/A","N/A","N/A","5","2","4","2","3","0.883333338","stim/H230.jpg","76","76","0.766666676","2","2","3","","4","0","2","3","1","0","4","4","0","1","0","0","6","6","0","6","6","0","6","2","5","6","0","6","6","6","0","5","6","5","3","2","1","0","0","2","1","3","0","5","5","4","5","5","6","1","6","6","6","5","5","6","6","6","5","3","5","3","2","2","2","agree","null","","","","","","","","stim/H080.jpg","null","","",""
"html-keyboard-response","119","669546","0.0-11.0-1.42","3eshmejk9mt51go","1","6110b60fcd15f143b1ec157e","21","07/2000","Single","English","French","Female","White or Caucasian","No","High School","Yes, Undergraduate studies","N/A","N/A","N/A","5","2","4","2","3","0.883333338","stim/H230.jpg","76","76","0.766666676","2","2","3","","4","0","2","3","1","0","4","4","0","1","0","0","6","6","0","6","6","0","6","2","5","6","0","6","6","6","0","5","6","5","3","2","1","0","0","2","1","3","0","5","5","4","5","5","6","1","6","6","6","5","5","6","6","6","5","3","5","3","2","2","2","agree","215.09999990463257","","","","","","","","<div style=""font-size:60px;"">?</div>","65","43","1","0.8"
"image-keyboard-response","120","670562","0.0-11.0-0.43","3eshmejk9mt51go","1","6110b60fcd15f143b1ec157e","21","07/2000","Single","English","French","Female","White or Caucasian","No","High School","Yes, Undergraduate studies","N/A","N/A","N/A","5","2","4","2","3","0.883333338","stim/H230.jpg","76","76","0.766666676","2","2","3","","4","0","2","3","1","0","4","4","0","1","0","0","6","6","0","6","6","0","6","2","5","6","0","6","6","6","0","5","6","5","3","2","1","0","0","2","1","3","0","5","5","4","5","5","6","1","6","6","6","5","5","6","6","6","5","3","5","3","2","2","2","agree","null","","","","","","","","stim/T010.jpg","null","","",""
"html-keyboard-response","121","670838","0.0-11.0-1.43","3eshmejk9mt51go","1","6110b60fcd15f143b1ec157e","21","07/2000","Single","English","French","Female","White or Caucasian","No","High School","Yes, Undergraduate studies","N/A","N/A","N/A","5","2","4","2","3","0.883333338","stim/H230.jpg","76","76","0.766666676","2","2","3","","4","0","2","3","1","0","4","4","0","1","0","0","6","6","0","6","6","0","6","2","5","6","0","6","6","6","0","5","6","5","3","2","1","0","0","2","1","3","0","5","5","4","5","5","6","1","6","6","6","5","5","6","6","6","5","3","5","3","2","2","2","agree","274.59999990463257","","","","","","","","<div style=""font-size:60px;"">?</div>","65","44","1","0.8"
"image-keyboard-response","122","671844","0.0-11.0-0.44","3eshmejk9mt51go","1","6110b60fcd15f143b1ec157e","21","07/2000","Single","English","French","Female","White or Caucasian","No","High School","Yes, Undergraduate studies","N/A","N/A","N/A","5","2","4","2","3","0.883333338","stim/H230.jpg","76","76","0.766666676","2","2","3","","4","0","2","3","1","0","4","4","0","1","0","0","6","6","0","6","6","0","6","2","5","6","0","6","6","6","0","5","6","5","3","2","1","0","0","2","1","3","0","5","5","4","5","5","6","1","6","6","6","5","5","6","6","6","5","3","5","3","2","2","2","agree","null","","","","","","","","stim/H180.jpg","null","","",""
"html-keyboard-response","123","672062","0.0-11.0-1.44","3eshmejk9mt51go","1","6110b60fcd15f143b1ec157e","21","07/2000","Single","English","French","Female","White or Caucasian","No","High School","Yes, Undergraduate studies","N/A","N/A","N/A","5","2","4","2","3","0.883333338","stim/H230.jpg","76","76","0.766666676","2","2","3","","4","0","2","3","1","0","4","4","0","1","0","0","6","6","0","6","6","0","6","2","5","6","0","6","6","6","0","5","6","5","3","2","1","0","0","2","1","3","0","5","5","4","5","5","6","1","6","6","6","5","5","6","6","6","5","3","5","3","2","2","2","agree","216.80000007152557","","","","","","","","<div style=""font-size:60px;"">?</div>","76","45","1","0.8"
"image-keyboard-response","124","673094","0.0-11.0-0.45","3eshmejk9mt51go","1","6110b60fcd15f143b1ec157e","21","07/2000","Single","English","French","Female","White or Caucasian","No","High School","Yes, Undergraduate studies","N/A","N/A","N/A","5","2","4","2","3","0.883333338","stim/H230.jpg","76","76","0.766666676","2","2","3","","4","0","2","3","1","0","4","4","0","1","0","0","6","6","0","6","6","0","6","2","5","6","0","6","6","6","0","5","6","5","3","2","1","0","0","2","1","3","0","5","5","4","5","5","6","1","6","6","6","5","5","6","6","6","5","3","5","3","2","2","2","agree","null","","","","","","","","stim/H240.jpg","null","","",""
"html-keyboard-response","125","673234","0.0-11.0-1.45","3eshmejk9mt51go","1","6110b60fcd15f143b1ec157e","21","07/2000","Single","English","French","Female","White or Caucasian","No","High School","Yes, Undergraduate studies","N/A","N/A","N/A","5","2","4","2","3","0.883333338","stim/H230.jpg","76","76","0.766666676","2","2","3","","4","0","2","3","1","0","4","4","0","1","0","0","6","6","0","6","6","0","6","2","5","6","0","6","6","6","0","5","6","5","3","2","1","0","0","2","1","3","0","5","5","4","5","5","6","1","6","6","6","5","5","6","6","6","5","3","5","3","2","2","2","agree","138.70000004768372","","","","","","","","<div style=""font-size:60px;"">?</div>","76","46","1","0.8"
"image-keyboard-response","126","674260","0.0-11.0-0.46","3eshmejk9mt51go","1","6110b60fcd15f143b1ec157e","21","07/2000","Single","English","French","Female","White or Caucasian","No","High School","Yes, Undergraduate studies","N/A","N/A","N/A","5","2","4","2","3","0.883333338","stim/H230.jpg","76","76","0.766666676","2","2","3","","4","0","2","3","1","0","4","4","0","1","0","0","6","6","0","6","6","0","6","2","5","6","0","6","6","6","0","5","6","5","3","2","1","0","0","2","1","3","0","5","5","4","5","5","6","1","6","6","6","5","5","6","6","6","5","3","5","3","2","2","2","agree","null","","","","","","","","stim/H180.jpg","null","","",""
"html-keyboard-response","127","674415","0.0-11.0-1.46","3eshmejk9mt51go","1","6110b60fcd15f143b1ec157e","21","07/2000","Single","English","French","Female","White or Caucasian","No","High School","Yes, Undergraduate studies","N/A","N/A","N/A","5","2","4","2","3","0.883333338","stim/H230.jpg","76","76","0.766666676","2","2","3","","4","0","2","3","1","0","4","4","0","1","0","0","6","6","0","6","6","0","6","2","5","6","0","6","6","6","0","5","6","5","3","2","1","0","0","2","1","3","0","5","5","4","5","5","6","1","6","6","6","5","5","6","6","6","5","3","5","3","2","2","2","agree","154.40000009536743","","","","","","","","<div style=""font-size:60px;"">?</div>","76","47","1","0.8"
"image-keyboard-response","128","675443","0.0-11.0-0.47","3eshmejk9mt51go","1","6110b60fcd15f143b1ec157e","21","07/2000","Single","English","French","Female","White or Caucasian","No","High School","Yes, Undergraduate studies","N/A","N/A","N/A","5","2","4","2","3","0.883333338","stim/H230.jpg","76","76","0.766666676","2","2","3","","4","0","2","3","1","0","4","4","0","1","0","0","6","6","0","6","6","0","6","2","5","6","0","6","6","6","0","5","6","5","3","2","1","0","0","2","1","3","0","5","5","4","5","5","6","1","6","6","6","5","5","6","6","6","5","3","5","3","2","2","2","agree","null","","","","","","","","stim/T010.jpg","null","","",""
"html-keyboard-response","129","675533","0.0-11.0-1.47","3eshmejk9mt51go","1","6110b60fcd15f143b1ec157e","21","07/2000","Single","English","French","Female","White or Caucasian","No","High School","Yes, Undergraduate studies","N/A","N/A","N/A","5","2","4","2","3","0.883333338","stim/H230.jpg","76","76","0.766666676","2","2","3","","4","0","2","3","1","0","4","4","0","1","0","0","6","6","0","6","6","0","6","2","5","6","0","6","6","6","0","5","6","5","3","2","1","0","0","2","1","3","0","5","5","4","5","5","6","1","6","6","6","5","5","6","6","6","5","3","5","3","2","2","2","agree","88.89999997615814","","","","","","","","<div style=""font-size:60px;"">?</div>","65","48","1","0.8"
"image-keyboard-response","130","676537","0.0-11.0-0.48","3eshmejk9mt51go","1","6110b60fcd15f143b1ec157e","21","07/2000","Single","English","French","Female","White or Caucasian","No","High School","Yes, Undergraduate studies","N/A","N/A","N/A","5","2","4","2","3","0.883333338","stim/H230.jpg","76","76","0.766666676","2","2","3","","4","0","2","3","1","0","4","4","0","1","0","0","6","6","0","6","6","0","6","2","5","6","0","6","6","6","0","5","6","5","3","2","1","0","0","2","1","3","0","5","5","4","5","5","6","1","6","6","6","5","5","6","6","6","5","3","5","3","2","2","2","agree","null","","","","","","","","stim/H210.jpg","null","","",""
"html-keyboard-response","131","676634","0.0-11.0-1.48","3eshmejk9mt51go","1","6110b60fcd15f143b1ec157e","21","07/2000","Single","English","French","Female","White or Caucasian","No","High School","Yes, Undergraduate studies","N/A","N/A","N/A","5","2","4","2","3","0.883333338","stim/H230.jpg","76","76","0.766666676","2","2","3","","4","0","2","3","1","0","4","4","0","1","0","0","6","6","0","6","6","0","6","2","5","6","0","6","6","6","0","5","6","5","3","2","1","0","0","2","1","3","0","5","5","4","5","5","6","1","6","6","6","5","5","6","6","6","5","3","5","3","2","2","2","agree","96.19999992847443","","","","","","","","<div style=""font-size:60px;"">?</div>","76","49","1","0.8"
"image-keyboard-response","132","677643","0.0-11.0-0.49","3eshmejk9mt51go","1","6110b60fcd15f143b1ec157e","21","07/2000","Single","English","French","Female","White or Caucasian","No","High School","Yes, Undergraduate studies","N/A","N/A","N/A","5","2","4","2","3","0.883333338","stim/H230.jpg","76","76","0.766666676","2","2","3","","4","0","2","3","1","0","4","4","0","1","0","0","6","6","0","6","6","0","6","2","5","6","0","6","6","6","0","5","6","5","3","2","1","0","0","2","1","3","0","5","5","4","5","5","6","1","6","6","6","5","5","6","6","6","5","3","5","3","2","2","2","agree","null","","","","","","","","stim/H060.jpg","null","","",""
"html-keyboard-response","133","677741","0.0-11.0-1.49","3eshmejk9mt51go","1","6110b60fcd15f143b1ec157e","21","07/2000","Single","English","French","Female","White or Caucasian","No","High School","Yes, Undergraduate studies","N/A","N/A","N/A","5","2","4","2","3","0.883333338","stim/H230.jpg","76","76","0.766666676","2","2","3","","4","0","2","3","1","0","4","4","0","1","0","0","6","6","0","6","6","0","6","2","5","6","0","6","6","6","0","5","6","5","3","2","1","0","0","2","1","3","0","5","5","4","5","5","6","1","6","6","6","5","5","6","6","6","5","3","5","3","2","2","2","agree","96.5","","","","","","","","<div style=""font-size:60px;"">?</div>","65","50","1","0.8"
"html-keyboard-response","134","743540","0.0-12.0","3eshmejk9mt51go","1","6110b60fcd15f143b1ec157e","21","07/2000","Single","English","French","Female","White or Caucasian","No","High School","Yes, Undergraduate studies","N/A","N/A","N/A","5","2","4","2","3","0.883333338","stim/H230.jpg","76","76","0.766666676","2","2","3","","4","0","2","3","1","0","4","4","0","1","0","0","6","6","0","6","6","0","6","2","5","6","0","6","6","6","0","5","6","5","3","2","1","0","0","2","1","3","0","5","5","4","5","5","6","1","6","6","6","5","5","6","6","6","5","3","5","3","2","2","2","agree","65286.800000071526","","","","","","","","<p>Block 2</p><p>Press SPACE to continue.</p>","32","","",""
"image-keyboard-response","135","745047","0.0-13.0-0.0","3eshmejk9mt51go","1","6110b60fcd15f143b1ec157e","21","07/2000","Single","English","French","Female","White or Caucasian","No","High School","Yes, Undergraduate studies","N/A","N/A","N/A","5","2","4","2","3","0.883333338","stim/H230.jpg","76","76","0.766666676","2","2","3","","4","0","2","3","1","0","4","4","0","1","0","0","6","6","0","6","6","0","6","2","5","6","0","6","6","6","0","5","6","5","3","2","1","0","0","2","1","3","0","5","5","4","5","5","6","1","6","6","6","5","5","6","6","6","5","3","5","3","2","2","2","agree","null","","","","","","","","stim/H130.jpg","null","","",""
"html-keyboard-response","136","745403","0.0-13.0-1.0","3eshmejk9mt51go","1","6110b60fcd15f143b1ec157e","21","07/2000","Single","English","French","Female","White or Caucasian","No","High School","Yes, Undergraduate studies","N/A","N/A","N/A","5","2","4","2","3","0.883333338","stim/H230.jpg","76","76","0.766666676","2","2","3","","4","0","2","3","1","0","4","4","0","1","0","0","6","6","0","6","6","0","6","2","5","6","0","6","6","6","0","5","6","5","3","2","1","0","0","2","1","3","0","5","5","4","5","5","6","1","6","6","6","5","5","6","6","6","5","3","5","3","2","2","2","agree","354.1999999284744","","","","","","","","<div style=""font-size:60px;"">?</div>","76","1","2","0.8"
"image-keyboard-response","137","746418","0.0-13.0-0.1","3eshmejk9mt51go","1","6110b60fcd15f143b1ec157e","21","07/2000","Single","English","French","Female","White or Caucasian","No","High School","Yes, Undergraduate studies","N/A","N/A","N/A","5","2","4","2","3","0.883333338","stim/H230.jpg","76","76","0.766666676","2","2","3","","4","0","2","3","1","0","4","4","0","1","0","0","6","6","0","6","6","0","6","2","5","6","0","6","6","6","0","5","6","5","3","2","1","0","0","2","1","3","0","5","5","4","5","5","6","1","6","6","6","5","5","6","6","6","5","3","5","3","2","2","2","agree","null","","","","","","","","stim/T020.jpg","null","","",""
"html-keyboard-response","138","746737","0.0-13.0-1.1","3eshmejk9mt51go","1","6110b60fcd15f143b1ec157e","21","07/2000","Single","English","French","Female","White or Caucasian","No","High School","Yes, Undergraduate studies","N/A","N/A","N/A","5","2","4","2","3","0.883333338","stim/H230.jpg","76","76","0.766666676","2","2","3","","4","0","2","3","1","0","4","4","0","1","0","0","6","6","0","6","6","0","6","2","5","6","0","6","6","6","0","5","6","5","3","2","1","0","0","2","1","3","0","5","5","4","5","5","6","1","6","6","6","5","5","6","6","6","5","3","5","3","2","2","2","agree","317.60000002384186","","","","","","","","<div style=""font-size:60px;"">?</div>","65","2","2","0.8"
"image-keyboard-response","139","747751","0.0-13.0-0.2","3eshmejk9mt51go","1","6110b60fcd15f143b1ec157e","21","07/2000","Single","English","French","Female","White or Caucasian","No","High School","Yes, Undergraduate studies","N/A","N/A","N/A","5","2","4","2","3","0.883333338","stim/H230.jpg","76","76","0.766666676","2","2","3","","4","0","2","3","1","0","4","4","0","1","0","0","6","6","0","6","6","0","6","2","5","6","0","6","6","6","0","5","6","5","3","2","1","0","0","2","1","3","0","5","5","4","5","5","6","1","6","6","6","5","5","6","6","6","5","3","5","3","2","2","2","agree","null","","","","","","","","stim/T210.jpg","null","","",""
"html-keyboard-response","140","747970","0.0-13.0-1.2","3eshmejk9mt51go","1","6110b60fcd15f143b1ec157e","21","07/2000","Single","English","French","Female","White or Caucasian","No","High School","Yes, Undergraduate studies","N/A","N/A","N/A","5","2","4","2","3","0.883333338","stim/H230.jpg","76","76","0.766666676","2","2","3","","4","0","2","3","1","0","4","4","0","1","0","0","6","6","0","6","6","0","6","2","5","6","0","6","6","6","0","5","6","5","3","2","1","0","0","2","1","3","0","5","5","4","5","5","6","1","6","6","6","5","5","6","6","6","5","3","5","3","2","2","2","agree","217.30000007152557","","","","","","","","<div style=""font-size:60px;"">?</div>","65","3","2","0.8"
"image-keyboard-response","141","749003","0.0-13.0-0.3","3eshmejk9mt51go","1","6110b60fcd15f143b1ec157e","21","07/2000","Single","English","French","Female","White or Caucasian","No","High School","Yes, Undergraduate studies","N/A","N/A","N/A","5","2","4","2","3","0.883333338","stim/H230.jpg","76","76","0.766666676","2","2","3","","4","0","2","3","1","0","4","4","0","1","0","0","6","6","0","6","6","0","6","2","5","6","0","6","6","6","0","5","6","5","3","2","1","0","0","2","1","3","0","5","5","4","5","5","6","1","6","6","6","5","5","6","6","6","5","3","5","3","2","2","2","agree","null","","","","","","","","stim/H150.jpg","null","","",""
"html-keyboard-response","142","749209","0.0-13.0-1.3","3eshmejk9mt51go","1","6110b60fcd15f143b1ec157e","21","07/2000","Single","English","French","Female","White or Caucasian","No","High School","Yes, Undergraduate studies","N/A","N/A","N/A","5","2","4","2","3","0.883333338","stim/H230.jpg","76","76","0.766666676","2","2","3","","4","0","2","3","1","0","4","4","0","1","0","0","6","6","0","6","6","0","6","2","5","6","0","6","6","6","0","5","6","5","3","2","1","0","0","2","1","3","0","5","5","4","5","5","6","1","6","6","6","5","5","6","6","6","5","3","5","3","2","2","2","agree","205.10000002384186","","","","","","","","<div style=""font-size:60px;"">?</div>","76","4","2","0.8"
"image-keyboard-response","143","750235","0.0-13.0-0.4","3eshmejk9mt51go","1","6110b60fcd15f143b1ec157e","21","07/2000","Single","English","French","Female","White or Caucasian","No","High School","Yes, Undergraduate studies","N/A","N/A","N/A","5","2","4","2","3","0.883333338","stim/H230.jpg","76","76","0.766666676","2","2","3","","4","0","2","3","1","0","4","4","0","1","0","0","6","6","0","6","6","0","6","2","5","6","0","6","6","6","0","5","6","5","3","2","1","0","0","2","1","3","0","5","5","4","5","5","6","1","6","6","6","5","5","6","6","6","5","3","5","3","2","2","2","agree","null","","","","","","","","stim/H270.jpg","null","","",""
"html-keyboard-response","144","750394","0.0-13.0-1.4","3eshmejk9mt51go","1","6110b60fcd15f143b1ec157e","21","07/2000","Single","English","French","Female","White or Caucasian","No","High School","Yes, Undergraduate studies","N/A","N/A","N/A","5","2","4","2","3","0.883333338","stim/H230.jpg","76","76","0.766666676","2","2","3","","4","0","2","3","1","0","4","4","0","1","0","0","6","6","0","6","6","0","6","2","5","6","0","6","6","6","0","5","6","5","3","2","1","0","0","2","1","3","0","5","5","4","5","5","6","1","6","6","6","5","5","6","6","6","5","3","5","3","2","2","2","agree","157.59999990463257","","","","","","","","<div style=""font-size:60px;"">?</div>","76","5","2","0.8"
"image-keyboard-response","145","751423","0.0-13.0-0.5","3eshmejk9mt51go","1","6110b60fcd15f143b1ec157e","21","07/2000","Single","English","French","Female","White or Caucasian","No","High School","Yes, Undergraduate studies","N/A","N/A","N/A","5","2","4","2","3","0.883333338","stim/H230.jpg","76","76","0.766666676","2","2","3","","4","0","2","3","1","0","4","4","0","1","0","0","6","6","0","6","6","0","6","2","5","6","0","6","6","6","0","5","6","5","3","2","1","0","0","2","1","3","0","5","5","4","5","5","6","1","6","6","6","5","5","6","6","6","5","3","5","3","2","2","2","agree","null","","","","","","","","stim/H180.jpg","null","","",""
"html-keyboard-response","146","751583","0.0-13.0-1.5","3eshmejk9mt51go","1","6110b60fcd15f143b1ec157e","21","07/2000","Single","English","French","Female","White or Caucasian","No","High School","Yes, Undergraduate studies","N/A","N/A","N/A","5","2","4","2","3","0.883333338","stim/H230.jpg","76","76","0.766666676","2","2","3","","4","0","2","3","1","0","4","4","0","1","0","0","6","6","0","6","6","0","6","2","5","6","0","6","6","6","0","5","6","5","3","2","1","0","0","2","1","3","0","5","5","4","5","5","6","1","6","6","6","5","5","6","6","6","5","3","5","3","2","2","2","agree","159.29999995231628","","","","","","","","<div style=""font-size:60px;"">?</div>","76","6","2","0.8"
