"trial_type","trial_index","time_elapsed","internal_node_id","subject","condition","ID","age","dob","marital","natlang","olang","gender","ethnicity","mental_check","educ_l","educ_c","mental","mentdrug","mentpos","sesparent","sesstudent","sesladder","sescurrency","educ_hs","educ_ce","s1self","chosenbody","s1selfjudge","s2selfjudge","s2self","sspc_01","sspc_02","pas_01","pas_02","pas_03","pas_04","pas_05","pas_06","pas_07","pas_08","pas_09","pas_10","pas_11","pas_12","pas_13","pas_14","contact_01","contact_02","contact_03","contact_04","contact_05","contact_06","contact_07","contact_08","contact_09","idnd_01","idnd_02","idnd_03","idnd_04","idnd_05","idnd_06","idnd_07","idnd_08","catch_01","adig_01","adig_02","adig_03","plcs_01","plcs_02","plcs_03","plcs_04","plcs_05","plcs_06","plcs_07","plcs_08","plcs_09","plcs_10","plcs_11","plcs_12","catch_02","wwwp_01","wwwp_02","wwwp_03","wwwp_04","wwwp_05","wwwp_06","wwwp_07","wwwp_08","wwwp_09","lsns_fam_1","lsns_fam_2","lsns_fam_3","lsns_fri_1","lsns_fri_2","lsns_fri_3","debrief","rt","url","success","view_history","responses","question_order","final_value","start_value","stimulus","key_press","trial","block","freq"
"pavlovia","0","5","0.0-0.0","e476sbj7cmaw40w","1","nathalie","24","08/1996","Single","English","French","Female","White or Caucasian","No","Undergraduate degree","Yes, Graduate studies","N/A","N/A","N/A","5","5","5","0","0","0","0.699999972","stim/H120.jpg","65","76","0.5000000200000001","1","3","4","","2","3","1","1","2","3","2","2","3","2","3","2","6","5","4","5","4","4","7","3","4","4","2","2","4","2","3","2","5","3","4","5","4","6","5","6","5","6","5","5","3","4","3","3","4","1","2","1","2","1","2","1","2","2","1","3","2","3","4","4","4","agree","","","","","","","","","","","","",""
"external-html","1","29898","0.0-1.0","e476sbj7cmaw40w","1","nathalie","24","08/1996","Single","English","French","Female","White or Caucasian","No","Undergraduate degree","Yes, Graduate studies","N/A","N/A","N/A","5","5","5","0","0","0","0.699999972","stim/H120.jpg","65","76","0.5000000200000001","1","3","4","","2","3","1","1","2","3","2","2","3","2","3","2","6","5","4","5","4","4","7","3","4","4","2","2","4","2","3","2","5","3","4","5","4","6","5","6","5","6","5","5","3","4","3","3","4","1","2","1","2","1","2","1","2","2","1","3","2","3","4","4","4","agree","29656.079999986105","sub/html/consent.html","","","","","","","","","","",""
"fullscreen","2","32731","0.0-2.0","e476sbj7cmaw40w","1","nathalie","24","08/1996","Single","English","French","Female","White or Caucasian","No","Undergraduate degree","Yes, Graduate studies","N/A","N/A","N/A","5","5","5","0","0","0","0.699999972","stim/H120.jpg","65","76","0.5000000200000001","1","3","4","","2","3","1","1","2","3","2","2","3","2","3","2","6","5","4","5","4","4","7","3","4","4","2","2","4","2","3","2","5","3","4","5","4","6","5","6","5","6","5","5","3","4","3","3","4","1","2","1","2","1","2","1","2","2","1","3","2","3","4","4","4","agree","","","true","","","","","","","","","",""
"instructions","3","46568","0.0-3.0","e476sbj7cmaw40w","1","nathalie","24","08/1996","Single","English","French","Female","White or Caucasian","No","Undergraduate degree","Yes, Graduate studies","N/A","N/A","N/A","5","5","5","0","0","0","0.699999972","stim/H120.jpg","65","76","0.5000000200000001","1","3","4","","2","3","1","1","2","3","2","2","3","2","3","2","6","5","4","5","4","4","7","3","4","4","2","2","4","2","3","2","5","3","4","5","4","6","5","6","5","6","5","5","3","4","3","3","4","1","2","1","2","1","2","1","2","2","1","3","2","3","4","4","4","agree","13835.869999995339","","","[{""page_index"":0,""viewing_time"":2218.9999999973224},{""page_index"":1,""viewing_time"":11615.62500000582}]","","","","","","","","",""
"survey-text","4","69398","0.0-4.0-0.0","e476sbj7cmaw40w","1","nathalie","24","08/1996","Single","English","French","Female","White or Caucasian","No","Undergraduate degree","Yes, Graduate studies","N/A","N/A","N/A","5","5","5","0","0","0","0.699999972","stim/H120.jpg","65","76","0.5000000200000001","1","3","4","","2","3","1","1","2","3","2","2","3","2","3","2","6","5","4","5","4","4","7","3","4","4","2","2","4","2","3","2","5","3","4","5","4","6","5","6","5","6","5","5","3","4","3","3","4","1","2","1","2","1","2","1","2","2","1","3","2","3","4","4","4","agree","22823.10999999754","","","","{""ID"":""nathalie"",""age"":""24"",""dob"":""08/1996"",""marital"":""Single"",""natlang"":""English"",""olang"":""French""}","","","","","","","",""
"survey-multi-choice","5","79313","0.0-4.0-1.0","e476sbj7cmaw40w","1","nathalie","24","08/1996","Single","English","French","Female","White or Caucasian","No","Undergraduate degree","Yes, Graduate studies","N/A","N/A","N/A","5","5","5","0","0","0","0.699999972","stim/H120.jpg","65","76","0.5000000200000001","1","3","4","","2","3","1","1","2","3","2","2","3","2","3","2","6","5","4","5","4","4","7","3","4","4","2","2","4","2","3","2","5","3","4","5","4","6","5","6","5","6","5","5","3","4","3","3","4","1","2","1","2","1","2","1","2","2","1","3","2","3","4","4","4","agree","9911.640000005718","","","","{""gender"":""Female"",""ethnicity"":""White or Caucasian"",""mental_check"":""No"",""educ_l"":""Undergraduate degree"",""educ_c"":""Yes, Graduate studies""}","[0,1,2,3,4]","","","","","","",""
"survey-text","6","104261","0.0-4.0-2.0","e476sbj7cmaw40w","1","nathalie","24","08/1996","Single","English","French","Female","White or Caucasian","No","Undergraduate degree","Yes, Graduate studies","N/A","N/A","N/A","5","5","5","0","0","0","0.699999972","stim/H120.jpg","65","76","0.5000000200000001","1","3","4","","2","3","1","1","2","3","2","2","3","2","3","2","6","5","4","5","4","4","7","3","4","4","2","2","4","2","3","2","5","3","4","5","4","6","5","6","5","6","5","5","3","4","3","3","4","1","2","1","2","1","2","1","2","2","1","3","2","3","4","4","4","agree","24941.104999990785","","","","{""mental"":""N/A"",""mentdrug"":""N/A"",""mentpos"":""N/A""}","","","","","","","",""
"survey-likert","7","115900","0.0-4.0-3.0","e476sbj7cmaw40w","1","nathalie","24","08/1996","Single","English","French","Female","White or Caucasian","No","Undergraduate degree","Yes, Graduate studies","N/A","N/A","N/A","5","5","5","0","0","0","0.699999972","stim/H120.jpg","65","76","0.5000000200000001","1","3","4","","2","3","1","1","2","3","2","2","3","2","3","2","6","5","4","5","4","4","7","3","4","4","2","2","4","2","3","2","5","3","4","5","4","6","5","6","5","6","5","5","3","4","3","3","4","1","2","1","2","1","2","1","2","2","1","3","2","3","4","4","4","agree","11634.935000009136","","","","{""sesparent"":5,""sesstudent"":5,""sesladder"":5,""sescurrency"":0}","[0,1,2,3]","","","","","","",""
"survey-likert","8","120055","0.0-4.0-4.0","e476sbj7cmaw40w","1","nathalie","24","08/1996","Single","English","French","Female","White or Caucasian","No","Undergraduate degree","Yes, Graduate studies","N/A","N/A","N/A","5","5","5","0","0","0","0.699999972","stim/H120.jpg","65","76","0.5000000200000001","1","3","4","","2","3","1","1","2","3","2","2","3","2","3","2","6","5","4","5","4","4","7","3","4","4","2","2","4","2","3","2","5","3","4","5","4","6","5","6","5","6","5","5","3","4","3","3","4","1","2","1","2","1","2","1","2","2","1","3","2","3","4","4","4","agree","4150.689999994938","","","","{""educ_hs"":0,""educ_ce"":0}","[0,1]","","","","","","",""
"reconstruction","9","163857","0.0-5.0","e476sbj7cmaw40w","1","nathalie","24","08/1996","Single","English","French","Female","White or Caucasian","No","Undergraduate degree","Yes, Graduate studies","N/A","N/A","N/A","5","5","5","0","0","0","0.699999972","stim/H120.jpg","65","76","0.5000000200000001","1","3","4","","2","3","1","1","2","3","2","2","3","2","3","2","6","5","4","5","4","4","7","3","4","4","2","2","4","2","3","2","5","3","4","5","4","6","5","6","5","6","5","5","3","4","3","3","4","1","2","1","2","1","2","1","2","2","1","3","2","3","4","4","4","agree","43798.68500000157","","","","","","0.699999972","0.5","","","","",""
"image-keyboard-response","10","169461","0.0-6.0","e476sbj7cmaw40w","1","nathalie","24","08/1996","Single","English","French","Female","White or Caucasian","No","Undergraduate degree","Yes, Graduate studies","N/A","N/A","N/A","5","5","5","0","0","0","0.699999972","stim/H120.jpg","65","76","0.5000000200000001","1","3","4","","2","3","1","1","2","3","2","2","3","2","3","2","6","5","4","5","4","4","7","3","4","4","2","2","4","2","3","2","5","3","4","5","4","6","5","6","5","6","5","5","3","4","3","3","4","1","2","1","2","1","2","1","2","2","1","3","2","3","4","4","4","agree","5599.365000001853","","","","","","","","stim/H120.jpg","65","","",""
"instructions","11","193509","0.0-7.0","e476sbj7cmaw40w","1","nathalie","24","08/1996","Single","English","French","Female","White or Caucasian","No","Undergraduate degree","Yes, Graduate studies","N/A","N/A","N/A","5","5","5","0","0","0","0.699999972","stim/H120.jpg","65","76","0.5000000200000001","1","3","4","","2","3","1","1","2","3","2","2","3","2","3","2","6","5","4","5","4","4","7","3","4","4","2","2","4","2","3","2","5","3","4","5","4","6","5","6","5","6","5","5","3","4","3","3","4","1","2","1","2","1","2","1","2","2","1","3","2","3","4","4","4","agree","24047.999999995227","","","[{""page_index"":0,""viewing_time"":3138.919999997597},{""page_index"":1,""viewing_time"":4165.554999999586},{""page_index"":2,""viewing_time"":2316.3100000092527},{""page_index"":3,""viewing_time"":2237.0949999894947},{""page_index"":4,""viewing_time"":2522.8550000028918},{""page_index"":5,""viewing_time"":1749.4750000041677},{""page_index"":4,""viewing_time"":1668.4099999984028},{""page_index"":5,""viewing_time"":3068.9649999985704},{""page_index"":6,""viewing_time"":3180.0899999943795}]","","","","","","","","",""
"image-keyboard-response","12","194011","0.0-8.0-0.0","e476sbj7cmaw40w","1","nathalie","24","08/1996","Single","English","French","Female","White or Caucasian","No","Undergraduate degree","Yes, Graduate studies","N/A","N/A","N/A","5","5","5","0","0","0","0.699999972","stim/H120.jpg","65","76","0.5000000200000001","1","3","4","","2","3","1","1","2","3","2","2","3","2","3","2","6","5","4","5","4","4","7","3","4","4","2","2","4","2","3","2","5","3","4","5","4","6","5","6","5","6","5","5","3","4","3","3","4","1","2","1","2","1","2","1","2","2","1","3","2","3","4","4","4","agree","null","","","","","","","","stim/H290.jpg","null","","",""
"html-keyboard-response","13","194824","0.0-8.0-1.0","e476sbj7cmaw40w","1","nathalie","24","08/1996","Single","English","French","Female","White or Caucasian","No","Undergraduate degree","Yes, Graduate studies","N/A","N/A","N/A","5","5","5","0","0","0","0.699999972","stim/H120.jpg","65","76","0.5000000200000001","1","3","4","","2","3","1","1","2","3","2","2","3","2","3","2","6","5","4","5","4","4","7","3","4","4","2","2","4","2","3","2","5","3","4","5","4","6","5","6","5","6","5","5","3","4","3","3","4","1","2","1","2","1","2","1","2","2","1","3","2","3","4","4","4","agree","810.5999999970663","","","","","","","","<div style=""font-size:60px;"">?</div>","76","1","Practice","0.5"
"image-keyboard-response","14","195831","0.0-8.0-0.1","e476sbj7cmaw40w","1","nathalie","24","08/1996","Single","English","French","Female","White or Caucasian","No","Undergraduate degree","Yes, Graduate studies","N/A","N/A","N/A","5","5","5","0","0","0","0.699999972","stim/H120.jpg","65","76","0.5000000200000001","1","3","4","","2","3","1","1","2","3","2","2","3","2","3","2","6","5","4","5","4","4","7","3","4","4","2","2","4","2","3","2","5","3","4","5","4","6","5","6","5","6","5","5","3","4","3","3","4","1","2","1","2","1","2","1","2","2","1","3","2","3","4","4","4","agree","null","","","","","","","","stim/H200.jpg","null","","",""
"html-keyboard-response","15","196075","0.0-8.0-1.1","e476sbj7cmaw40w","1","nathalie","24","08/1996","Single","English","French","Female","White or Caucasian","No","Undergraduate degree","Yes, Graduate studies","N/A","N/A","N/A","5","5","5","0","0","0","0.699999972","stim/H120.jpg","65","76","0.5000000200000001","1","3","4","","2","3","1","1","2","3","2","2","3","2","3","2","6","5","4","5","4","4","7","3","4","4","2","2","4","2","3","2","5","3","4","5","4","6","5","6","5","6","5","5","3","4","3","3","4","1","2","1","2","1","2","1","2","2","1","3","2","3","4","4","4","agree","242.29000000923406","","","","","","","","<div style=""font-size:60px;"">?</div>","76","2","Practice","0.5"
"image-keyboard-response","16","197083","0.0-8.0-0.2","e476sbj7cmaw40w","1","nathalie","24","08/1996","Single","English","French","Female","White or Caucasian","No","Undergraduate degree","Yes, Graduate studies","N/A","N/A","N/A","5","5","5","0","0","0","0.699999972","stim/H120.jpg","65","76","0.5000000200000001","1","3","4","","2","3","1","1","2","3","2","2","3","2","3","2","6","5","4","5","4","4","7","3","4","4","2","2","4","2","3","2","5","3","4","5","4","6","5","6","5","6","5","5","3","4","3","3","4","1","2","1","2","1","2","1","2","2","1","3","2","3","4","4","4","agree","null","","","","","","","","stim/T300.jpg","null","","",""
"html-keyboard-response","17","197309","0.0-8.0-1.2","e476sbj7cmaw40w","1","nathalie","24","08/1996","Single","English","French","Female","White or Caucasian","No","Undergraduate degree","Yes, Graduate studies","N/A","N/A","N/A","5","5","5","0","0","0","0.699999972","stim/H120.jpg","65","76","0.5000000200000001","1","3","4","","2","3","1","1","2","3","2","2","3","2","3","2","6","5","4","5","4","4","7","3","4","4","2","2","4","2","3","2","5","3","4","5","4","6","5","6","5","6","5","5","3","4","3","3","4","1","2","1","2","1","2","1","2","2","1","3","2","3","4","4","4","agree","224.92500000225846","","","","","","","","<div style=""font-size:60px;"">?</div>","76","3","Practice","0.5"
"image-keyboard-response","18","198316","0.0-8.0-0.3","e476sbj7cmaw40w","1","nathalie","24","08/1996","Single","English","French","Female","White or Caucasian","No","Undergraduate degree","Yes, Graduate studies","N/A","N/A","N/A","5","5","5","0","0","0","0.699999972","stim/H120.jpg","65","76","0.5000000200000001","1","3","4","","2","3","1","1","2","3","2","2","3","2","3","2","6","5","4","5","4","4","7","3","4","4","2","2","4","2","3","2","5","3","4","5","4","6","5","6","5","6","5","5","3","4","3","3","4","1","2","1","2","1","2","1","2","2","1","3","2","3","4","4","4","agree","null","","","","","","","","stim/T010.jpg","null","","",""
"html-keyboard-response","19","198522","0.0-8.0-1.3","e476sbj7cmaw40w","1","nathalie","24","08/1996","Single","English","French","Female","White or Caucasian","No","Undergraduate degree","Yes, Graduate studies","N/A","N/A","N/A","5","5","5","0","0","0","0.699999972","stim/H120.jpg","65","76","0.5000000200000001","1","3","4","","2","3","1","1","2","3","2","2","3","2","3","2","6","5","4","5","4","4","7","3","4","4","2","2","4","2","3","2","5","3","4","5","4","6","5","6","5","6","5","5","3","4","3","3","4","1","2","1","2","1","2","1","2","2","1","3","2","3","4","4","4","agree","204.72500000323635","","","","","","","","<div style=""font-size:60px;"">?</div>","76","4","Practice","0.5"
"image-keyboard-response","20","199530","0.0-8.0-0.4","e476sbj7cmaw40w","1","nathalie","24","08/1996","Single","English","French","Female","White or Caucasian","No","Undergraduate degree","Yes, Graduate studies","N/A","N/A","N/A","5","5","5","0","0","0","0.699999972","stim/H120.jpg","65","76","0.5000000200000001","1","3","4","","2","3","1","1","2","3","2","2","3","2","3","2","6","5","4","5","4","4","7","3","4","4","2","2","4","2","3","2","5","3","4","5","4","6","5","6","5","6","5","5","3","4","3","3","4","1","2","1","2","1","2","1","2","2","1","3","2","3","4","4","4","agree","null","","","","","","","","stim/T020.jpg","null","","",""
"html-keyboard-response","21","199763","0.0-8.0-1.4","e476sbj7cmaw40w","1","nathalie","24","08/1996","Single","English","French","Female","White or Caucasian","No","Undergraduate degree","Yes, Graduate studies","N/A","N/A","N/A","5","5","5","0","0","0","0.699999972","stim/H120.jpg","65","76","0.5000000200000001","1","3","4","","2","3","1","1","2","3","2","2","3","2","3","2","6","5","4","5","4","4","7","3","4","4","2","2","4","2","3","2","5","3","4","5","4","6","5","6","5","6","5","5","3","4","3","3","4","1","2","1","2","1","2","1","2","2","1","3","2","3","4","4","4","agree","232.55500000959728","","","","","","","","<div style=""font-size:60px;"">?</div>","76","5","Practice","0.5"
"image-keyboard-response","22","200768","0.0-8.0-0.5","e476sbj7cmaw40w","1","nathalie","24","08/1996","Single","English","French","Female","White or Caucasian","No","Undergraduate degree","Yes, Graduate studies","N/A","N/A","N/A","5","5","5","0","0","0","0.699999972","stim/H120.jpg","65","76","0.5000000200000001","1","3","4","","2","3","1","1","2","3","2","2","3","2","3","2","6","5","4","5","4","4","7","3","4","4","2","2","4","2","3","2","5","3","4","5","4","6","5","6","5","6","5","5","3","4","3","3","4","1","2","1","2","1","2","1","2","2","1","3","2","3","4","4","4","agree","null","","","","","","","","stim/T220.jpg","null","","",""
"html-keyboard-response","23","200989","0.0-8.0-1.5","e476sbj7cmaw40w","1","nathalie","24","08/1996","Single","English","French","Female","White or Caucasian","No","Undergraduate degree","Yes, Graduate studies","N/A","N/A","N/A","5","5","5","0","0","0","0.699999972","stim/H120.jpg","65","76","0.5000000200000001","1","3","4","","2","3","1","1","2","3","2","2","3","2","3","2","6","5","4","5","4","4","7","3","4","4","2","2","4","2","3","2","5","3","4","5","4","6","5","6","5","6","5","5","3","4","3","3","4","1","2","1","2","1","2","1","2","2","1","3","2","3","4","4","4","agree","218.83500000694767","","","","","","","","<div style=""font-size:60px;"">?</div>","76","6","Practice","0.5"
"image-keyboard-response","24","201999","0.0-8.0-0.6","e476sbj7cmaw40w","1","nathalie","24","08/1996","Single","English","French","Female","White or Caucasian","No","Undergraduate degree","Yes, Graduate studies","N/A","N/A","N/A","5","5","5","0","0","0","0.699999972","stim/H120.jpg","65","76","0.5000000200000001","1","3","4","","2","3","1","1","2","3","2","2","3","2","3","2","6","5","4","5","4","4","7","3","4","4","2","2","4","2","3","2","5","3","4","5","4","6","5","6","5","6","5","5","3","4","3","3","4","1","2","1","2","1","2","1","2","2","1","3","2","3","4","4","4","agree","null","","","","","","","","stim/H160.jpg","null","","",""
"html-keyboard-response","25","202159","0.0-8.0-1.6","e476sbj7cmaw40w","1","nathalie","24","08/1996","Single","English","French","Female","White or Caucasian","No","Undergraduate degree","Yes, Graduate studies","N/A","N/A","N/A","5","5","5","0","0","0","0.699999972","stim/H120.jpg","65","76","0.5000000200000001","1","3","4","","2","3","1","1","2","3","2","2","3","2","3","2","6","5","4","5","4","4","7","3","4","4","2","2","4","2","3","2","5","3","4","5","4","6","5","6","5","6","5","5","3","4","3","3","4","1","2","1","2","1","2","1","2","2","1","3","2","3","4","4","4","agree","158.51999999722466","","","","","","","","<div style=""font-size:60px;"">?</div>","76","7","Practice","0.5"
"image-keyboard-response","26","203166","0.0-8.0-0.7","e476sbj7cmaw40w","1","nathalie","24","08/1996","Single","English","French","Female","White or Caucasian","No","Undergraduate degree","Yes, Graduate studies","N/A","N/A","N/A","5","5","5","0","0","0","0.699999972","stim/H120.jpg","65","76","0.5000000200000001","1","3","4","","2","3","1","1","2","3","2","2","3","2","3","2","6","5","4","5","4","4","7","3","4","4","2","2","4","2","3","2","5","3","4","5","4","6","5","6","5","6","5","5","3","4","3","3","4","1","2","1","2","1","2","1","2","2","1","3","2","3","4","4","4","agree","null","","","","","","","","stim/H080.jpg","null","","",""
"html-keyboard-response","27","203400","0.0-8.0-1.7","e476sbj7cmaw40w","1","nathalie","24","08/1996","Single","English","French","Female","White or Caucasian","No","Undergraduate degree","Yes, Graduate studies","N/A","N/A","N/A","5","5","5","0","0","0","0.699999972","stim/H120.jpg","65","76","0.5000000200000001","1","3","4","","2","3","1","1","2","3","2","2","3","2","3","2","6","5","4","5","4","4","7","3","4","4","2","2","4","2","3","2","5","3","4","5","4","6","5","6","5","6","5","5","3","4","3","3","4","1","2","1","2","1","2","1","2","2","1","3","2","3","4","4","4","agree","233.2299999980023","","","","","","","","<div style=""font-size:60px;"">?</div>","76","8","Practice","0.5"
"image-keyboard-response","28","204405","0.0-8.0-0.8","e476sbj7cmaw40w","1","nathalie","24","08/1996","Single","English","French","Female","White or Caucasian","No","Undergraduate degree","Yes, Graduate studies","N/A","N/A","N/A","5","5","5","0","0","0","0.699999972","stim/H120.jpg","65","76","0.5000000200000001","1","3","4","","2","3","1","1","2","3","2","2","3","2","3","2","6","5","4","5","4","4","7","3","4","4","2","2","4","2","3","2","5","3","4","5","4","6","5","6","5","6","5","5","3","4","3","3","4","1","2","1","2","1","2","1","2","2","1","3","2","3","4","4","4","agree","null","","","","","","","","stim/H080.jpg","null","","",""
"html-keyboard-response","29","204637","0.0-8.0-1.8","e476sbj7cmaw40w","1","nathalie","24","08/1996","Single","English","French","Female","White or Caucasian","No","Undergraduate degree","Yes, Graduate studies","N/A","N/A","N/A","5","5","5","0","0","0","0.699999972","stim/H120.jpg","65","76","0.5000000200000001","1","3","4","","2","3","1","1","2","3","2","2","3","2","3","2","6","5","4","5","4","4","7","3","4","4","2","2","4","2","3","2","5","3","4","5","4","6","5","6","5","6","5","5","3","4","3","3","4","1","2","1","2","1","2","1","2","2","1","3","2","3","4","4","4","agree","230.83499999484047","","","","","","","","<div style=""font-size:60px;"">?</div>","76","9","Practice","0.5"
"image-keyboard-response","30","205643","0.0-8.0-0.9","e476sbj7cmaw40w","1","nathalie","24","08/1996","Single","English","French","Female","White or Caucasian","No","Undergraduate degree","Yes, Graduate studies","N/A","N/A","N/A","5","5","5","0","0","0","0.699999972","stim/H120.jpg","65","76","0.5000000200000001","1","3","4","","2","3","1","1","2","3","2","2","3","2","3","2","6","5","4","5","4","4","7","3","4","4","2","2","4","2","3","2","5","3","4","5","4","6","5","6","5","6","5","5","3","4","3","3","4","1","2","1","2","1","2","1","2","2","1","3","2","3","4","4","4","agree","null","","","","","","","","stim/T030.jpg","null","","",""
"html-keyboard-response","31","206238","0.0-8.0-1.9","e476sbj7cmaw40w","1","nathalie","24","08/1996","Single","English","French","Female","White or Caucasian","No","Undergraduate degree","Yes, Graduate studies","N/A","N/A","N/A","5","5","5","0","0","0","0.699999972","stim/H120.jpg","65","76","0.5000000200000001","1","3","4","","2","3","1","1","2","3","2","2","3","2","3","2","6","5","4","5","4","4","7","3","4","4","2","2","4","2","3","2","5","3","4","5","4","6","5","6","5","6","5","5","3","4","3","3","4","1","2","1","2","1","2","1","2","2","1","3","2","3","4","4","4","agree","593.8400000013644","","","","","","","","<div style=""font-size:60px;"">?</div>","76","10","Practice","0.5"
"html-keyboard-response","32","209309","0.0-9.0","e476sbj7cmaw40w","1","nathalie","24","08/1996","Single","English","French","Female","White or Caucasian","No","Undergraduate degree","Yes, Graduate studies","N/A","N/A","N/A","5","5","5","0","0","0","0.699999972","stim/H120.jpg","65","76","0.5000000200000001","1","3","4","","2","3","1","1","2","3","2","2","3","2","3","2","6","5","4","5","4","4","7","3","4","4","2","2","4","2","3","2","5","3","4","5","4","6","5","6","5","6","5","5","3","4","3","3","4","1","2","1","2","1","2","1","2","2","1","3","2","3","4","4","4","agree","2567.014999993262","","","","","","","","<p>You have now completed the practice series.</p><p>If you have any questions, please reload this page and read the instructions again.</p><p>Otherwise, you're ready to begin the study.</p><p><strong>REMEMBER</strong>: Press <b>L </b>when you think the model is overweight, and <b>A </b>if not. </p><p>Press SPACE when you're ready to start!</p>","32","","",""
"html-keyboard-response","33","210888","0.0-10.0","e476sbj7cmaw40w","1","nathalie","24","08/1996","Single","English","French","Female","White or Caucasian","No","Undergraduate degree","Yes, Graduate studies","N/A","N/A","N/A","5","5","5","0","0","0","0.699999972","stim/H120.jpg","65","76","0.5000000200000001","1","3","4","","2","3","1","1","2","3","2","2","3","2","3","2","6","5","4","5","4","4","7","3","4","4","2","2","4","2","3","2","5","3","4","5","4","6","5","6","5","6","5","5","3","4","3","3","4","1","2","1","2","1","2","1","2","2","1","3","2","3","4","4","4","agree","1073.7000000081025","","","","","","","","<p>Block 1</p><p>Press SPACE to continue.</p>","32","","",""
"image-keyboard-response","34","212394","0.0-11.0-0.0","e476sbj7cmaw40w","1","nathalie","24","08/1996","Single","English","French","Female","White or Caucasian","No","Undergraduate degree","Yes, Graduate studies","N/A","N/A","N/A","5","5","5","0","0","0","0.699999972","stim/H120.jpg","65","76","0.5000000200000001","1","3","4","","2","3","1","1","2","3","2","2","3","2","3","2","6","5","4","5","4","4","7","3","4","4","2","2","4","2","3","2","5","3","4","5","4","6","5","6","5","6","5","5","3","4","3","3","4","1","2","1","2","1","2","1","2","2","1","3","2","3","4","4","4","agree","null","","","","","","","","stim/T290.jpg","null","","",""
"html-keyboard-response","35","212594","0.0-11.0-1.0","e476sbj7cmaw40w","1","nathalie","24","08/1996","Single","English","French","Female","White or Caucasian","No","Undergraduate degree","Yes, Graduate studies","N/A","N/A","N/A","5","5","5","0","0","0","0.699999972","stim/H120.jpg","65","76","0.5000000200000001","1","3","4","","2","3","1","1","2","3","2","2","3","2","3","2","6","5","4","5","4","4","7","3","4","4","2","2","4","2","3","2","5","3","4","5","4","6","5","6","5","6","5","5","3","4","3","3","4","1","2","1","2","1","2","1","2","2","1","3","2","3","4","4","4","agree","198.24999998672865","","","","","","","","<div style=""font-size:60px;"">?</div>","65","1","1","0.5"
"image-keyboard-response","36","213600","0.0-11.0-0.1","e476sbj7cmaw40w","1","nathalie","24","08/1996","Single","English","French","Female","White or Caucasian","No","Undergraduate degree","Yes, Graduate studies","N/A","N/A","N/A","5","5","5","0","0","0","0.699999972","stim/H120.jpg","65","76","0.5000000200000001","1","3","4","","2","3","1","1","2","3","2","2","3","2","3","2","6","5","4","5","4","4","7","3","4","4","2","2","4","2","3","2","5","3","4","5","4","6","5","6","5","6","5","5","3","4","3","3","4","1","2","1","2","1","2","1","2","2","1","3","2","3","4","4","4","agree","null","","","","","","","","stim/H260.jpg","null","","",""
"html-keyboard-response","37","213834","0.0-11.0-1.1","e476sbj7cmaw40w","1","nathalie","24","08/1996","Single","English","French","Female","White or Caucasian","No","Undergraduate degree","Yes, Graduate studies","N/A","N/A","N/A","5","5","5","0","0","0","0.699999972","stim/H120.jpg","65","76","0.5000000200000001","1","3","4","","2","3","1","1","2","3","2","2","3","2","3","2","6","5","4","5","4","4","7","3","4","4","2","2","4","2","3","2","5","3","4","5","4","6","5","6","5","6","5","5","3","4","3","3","4","1","2","1","2","1","2","1","2","2","1","3","2","3","4","4","4","agree","232.70500000216998","","","","","","","","<div style=""font-size:60px;"">?</div>","65","2","1","0.5"
"image-keyboard-response","38","214837","0.0-11.0-0.2","e476sbj7cmaw40w","1","nathalie","24","08/1996","Single","English","French","Female","White or Caucasian","No","Undergraduate degree","Yes, Graduate studies","N/A","N/A","N/A","5","5","5","0","0","0","0.699999972","stim/H120.jpg","65","76","0.5000000200000001","1","3","4","","2","3","1","1","2","3","2","2","3","2","3","2","6","5","4","5","4","4","7","3","4","4","2","2","4","2","3","2","5","3","4","5","4","6","5","6","5","6","5","5","3","4","3","3","4","1","2","1","2","1","2","1","2","2","1","3","2","3","4","4","4","agree","null","","","","","","","","stim/T230.jpg","null","","",""
"html-keyboard-response","39","215015","0.0-11.0-1.2","e476sbj7cmaw40w","1","nathalie","24","08/1996","Single","English","French","Female","White or Caucasian","No","Undergraduate degree","Yes, Graduate studies","N/A","N/A","N/A","5","5","5","0","0","0","0.699999972","stim/H120.jpg","65","76","0.5000000200000001","1","3","4","","2","3","1","1","2","3","2","2","3","2","3","2","6","5","4","5","4","4","7","3","4","4","2","2","4","2","3","2","5","3","4","5","4","6","5","6","5","6","5","5","3","4","3","3","4","1","2","1","2","1","2","1","2","2","1","3","2","3","4","4","4","agree","176.5949999971781","","","","","","","","<div style=""font-size:60px;"">?</div>","65","3","1","0.5"
"image-keyboard-response","40","216021","0.0-11.0-0.3","e476sbj7cmaw40w","1","nathalie","24","08/1996","Single","English","French","Female","White or Caucasian","No","Undergraduate degree","Yes, Graduate studies","N/A","N/A","N/A","5","5","5","0","0","0","0.699999972","stim/H120.jpg","65","76","0.5000000200000001","1","3","4","","2","3","1","1","2","3","2","2","3","2","3","2","6","5","4","5","4","4","7","3","4","4","2","2","4","2","3","2","5","3","4","5","4","6","5","6","5","6","5","5","3","4","3","3","4","1","2","1","2","1","2","1","2","2","1","3","2","3","4","4","4","agree","null","","","","","","","","stim/T120.jpg","null","","",""
"html-keyboard-response","41","216171","0.0-11.0-1.3","e476sbj7cmaw40w","1","nathalie","24","08/1996","Single","English","French","Female","White or Caucasian","No","Undergraduate degree","Yes, Graduate studies","N/A","N/A","N/A","5","5","5","0","0","0","0.699999972","stim/H120.jpg","65","76","0.5000000200000001","1","3","4","","2","3","1","1","2","3","2","2","3","2","3","2","6","5","4","5","4","4","7","3","4","4","2","2","4","2","3","2","5","3","4","5","4","6","5","6","5","6","5","5","3","4","3","3","4","1","2","1","2","1","2","1","2","2","1","3","2","3","4","4","4","agree","149.61499998753425","","","","","","","","<div style=""font-size:60px;"">?</div>","65","4","1","0.5"
"image-keyboard-response","42","217177","0.0-11.0-0.4","e476sbj7cmaw40w","1","nathalie","24","08/1996","Single","English","French","Female","White or Caucasian","No","Undergraduate degree","Yes, Graduate studies","N/A","N/A","N/A","5","5","5","0","0","0","0.699999972","stim/H120.jpg","65","76","0.5000000200000001","1","3","4","","2","3","1","1","2","3","2","2","3","2","3","2","6","5","4","5","4","4","7","3","4","4","2","2","4","2","3","2","5","3","4","5","4","6","5","6","5","6","5","5","3","4","3","3","4","1","2","1","2","1","2","1","2","2","1","3","2","3","4","4","4","agree","null","","","","","","","","stim/T160.jpg","null","","",""
"html-keyboard-response","43","217304","0.0-11.0-1.4","e476sbj7cmaw40w","1","nathalie","24","08/1996","Single","English","French","Female","White or Caucasian","No","Undergraduate degree","Yes, Graduate studies","N/A","N/A","N/A","5","5","5","0","0","0","0.699999972","stim/H120.jpg","65","76","0.5000000200000001","1","3","4","","2","3","1","1","2","3","2","2","3","2","3","2","6","5","4","5","4","4","7","3","4","4","2","2","4","2","3","2","5","3","4","5","4","6","5","6","5","6","5","5","3","4","3","3","4","1","2","1","2","1","2","1","2","2","1","3","2","3","4","4","4","agree","126.60000000323635","","","","","","","","<div style=""font-size:60px;"">?</div>","65","5","1","0.5"
"image-keyboard-response","44","218309","0.0-11.0-0.5","e476sbj7cmaw40w","1","nathalie","24","08/1996","Single","English","French","Female","White or Caucasian","No","Undergraduate degree","Yes, Graduate studies","N/A","N/A","N/A","5","5","5","0","0","0","0.699999972","stim/H120.jpg","65","76","0.5000000200000001","1","3","4","","2","3","1","1","2","3","2","2","3","2","3","2","6","5","4","5","4","4","7","3","4","4","2","2","4","2","3","2","5","3","4","5","4","6","5","6","5","6","5","5","3","4","3","3","4","1","2","1","2","1","2","1","2","2","1","3","2","3","4","4","4","agree","null","","","","","","","","stim/H040.jpg","null","","",""
"html-keyboard-response","45","218521","0.0-11.0-1.5","e476sbj7cmaw40w","1","nathalie","24","08/1996","Single","English","French","Female","White or Caucasian","No","Undergraduate degree","Yes, Graduate studies","N/A","N/A","N/A","5","5","5","0","0","0","0.699999972","stim/H120.jpg","65","76","0.5000000200000001","1","3","4","","2","3","1","1","2","3","2","2","3","2","3","2","6","5","4","5","4","4","7","3","4","4","2","2","4","2","3","2","5","3","4","5","4","6","5","6","5","6","5","5","3","4","3","3","4","1","2","1","2","1","2","1","2","2","1","3","2","3","4","4","4","agree","211.0299999912968","","","","","","","","<div style=""font-size:60px;"">?</div>","65","6","1","0.5"
"image-keyboard-response","46","219525","0.0-11.0-0.6","e476sbj7cmaw40w","1","nathalie","24","08/1996","Single","English","French","Female","White or Caucasian","No","Undergraduate degree","Yes, Graduate studies","N/A","N/A","N/A","5","5","5","0","0","0","0.699999972","stim/H120.jpg","65","76","0.5000000200000001","1","3","4","","2","3","1","1","2","3","2","2","3","2","3","2","6","5","4","5","4","4","7","3","4","4","2","2","4","2","3","2","5","3","4","5","4","6","5","6","5","6","5","5","3","4","3","3","4","1","2","1","2","1","2","1","2","2","1","3","2","3","4","4","4","agree","null","","","","","","","","stim/H250.jpg","null","","",""
"html-keyboard-response","47","219717","0.0-11.0-1.6","e476sbj7cmaw40w","1","nathalie","24","08/1996","Single","English","French","Female","White or Caucasian","No","Undergraduate degree","Yes, Graduate studies","N/A","N/A","N/A","5","5","5","0","0","0","0.699999972","stim/H120.jpg","65","76","0.5000000200000001","1","3","4","","2","3","1","1","2","3","2","2","3","2","3","2","6","5","4","5","4","4","7","3","4","4","2","2","4","2","3","2","5","3","4","5","4","6","5","6","5","6","5","5","3","4","3","3","4","1","2","1","2","1","2","1","2","2","1","3","2","3","4","4","4","agree","191.05999999737833","","","","","","","","<div style=""font-size:60px;"">?</div>","65","7","1","0.5"
"image-keyboard-response","48","220720","0.0-11.0-0.7","e476sbj7cmaw40w","1","nathalie","24","08/1996","Single","English","French","Female","White or Caucasian","No","Undergraduate degree","Yes, Graduate studies","N/A","N/A","N/A","5","5","5","0","0","0","0.699999972","stim/H120.jpg","65","76","0.5000000200000001","1","3","4","","2","3","1","1","2","3","2","2","3","2","3","2","6","5","4","5","4","4","7","3","4","4","2","2","4","2","3","2","5","3","4","5","4","6","5","6","5","6","5","5","3","4","3","3","4","1","2","1","2","1","2","1","2","2","1","3","2","3","4","4","4","agree","null","","","","","","","","stim/H130.jpg","null","","",""
"html-keyboard-response","49","220823","0.0-11.0-1.7","e476sbj7cmaw40w","1","nathalie","24","08/1996","Single","English","French","Female","White or Caucasian","No","Undergraduate degree","Yes, Graduate studies","N/A","N/A","N/A","5","5","5","0","0","0","0.699999972","stim/H120.jpg","65","76","0.5000000200000001","1","3","4","","2","3","1","1","2","3","2","2","3","2","3","2","6","5","4","5","4","4","7","3","4","4","2","2","4","2","3","2","5","3","4","5","4","6","5","6","5","6","5","5","3","4","3","3","4","1","2","1","2","1","2","1","2","2","1","3","2","3","4","4","4","agree","101.63999999349471","","","","","","","","<div style=""font-size:60px;"">?</div>","65","8","1","0.5"
"image-keyboard-response","50","221831","0.0-11.0-0.8","e476sbj7cmaw40w","1","nathalie","24","08/1996","Single","English","French","Female","White or Caucasian","No","Undergraduate degree","Yes, Graduate studies","N/A","N/A","N/A","5","5","5","0","0","0","0.699999972","stim/H120.jpg","65","76","0.5000000200000001","1","3","4","","2","3","1","1","2","3","2","2","3","2","3","2","6","5","4","5","4","4","7","3","4","4","2","2","4","2","3","2","5","3","4","5","4","6","5","6","5","6","5","5","3","4","3","3","4","1","2","1","2","1","2","1","2","2","1","3","2","3","4","4","4","agree","null","","","","","","","","stim/T260.jpg","null","","",""
"html-keyboard-response","51","222083","0.0-11.0-1.8","e476sbj7cmaw40w","1","nathalie","24","08/1996","Single","English","French","Female","White or Caucasian","No","Undergraduate degree","Yes, Graduate studies","N/A","N/A","N/A","5","5","5","0","0","0","0.699999972","stim/H120.jpg","65","76","0.5000000200000001","1","3","4","","2","3","1","1","2","3","2","2","3","2","3","2","6","5","4","5","4","4","7","3","4","4","2","2","4","2","3","2","5","3","4","5","4","6","5","6","5","6","5","5","3","4","3","3","4","1","2","1","2","1","2","1","2","2","1","3","2","3","4","4","4","agree","250.86000000010245","","","","","","","","<div style=""font-size:60px;"">?</div>","65","9","1","0.5"
"image-keyboard-response","52","223087","0.0-11.0-0.9","e476sbj7cmaw40w","1","nathalie","24","08/1996","Single","English","French","Female","White or Caucasian","No","Undergraduate degree","Yes, Graduate studies","N/A","N/A","N/A","5","5","5","0","0","0","0.699999972","stim/H120.jpg","65","76","0.5000000200000001","1","3","4","","2","3","1","1","2","3","2","2","3","2","3","2","6","5","4","5","4","4","7","3","4","4","2","2","4","2","3","2","5","3","4","5","4","6","5","6","5","6","5","5","3","4","3","3","4","1","2","1","2","1","2","1","2","2","1","3","2","3","4","4","4","agree","null","","","","","","","","stim/T230.jpg","null","","",""
"html-keyboard-response","53","223337","0.0-11.0-1.9","e476sbj7cmaw40w","1","nathalie","24","08/1996","Single","English","French","Female","White or Caucasian","No","Undergraduate degree","Yes, Graduate studies","N/A","N/A","N/A","5","5","5","0","0","0","0.699999972","stim/H120.jpg","65","76","0.5000000200000001","1","3","4","","2","3","1","1","2","3","2","2","3","2","3","2","6","5","4","5","4","4","7","3","4","4","2","2","4","2","3","2","5","3","4","5","4","6","5","6","5","6","5","5","3","4","3","3","4","1","2","1","2","1","2","1","2","2","1","3","2","3","4","4","4","agree","248.74999999883585","","","","","","","","<div style=""font-size:60px;"">?</div>","65","10","1","0.5"
"image-keyboard-response","54","224342","0.0-11.0-0.10","e476sbj7cmaw40w","1","nathalie","24","08/1996","Single","English","French","Female","White or Caucasian","No","Undergraduate degree","Yes, Graduate studies","N/A","N/A","N/A","5","5","5","0","0","0","0.699999972","stim/H120.jpg","65","76","0.5000000200000001","1","3","4","","2","3","1","1","2","3","2","2","3","2","3","2","6","5","4","5","4","4","7","3","4","4","2","2","4","2","3","2","5","3","4","5","4","6","5","6","5","6","5","5","3","4","3","3","4","1","2","1","2","1","2","1","2","2","1","3","2","3","4","4","4","agree","null","","","","","","","","stim/T200.jpg","null","","",""
"html-keyboard-response","55","224564","0.0-11.0-1.10","e476sbj7cmaw40w","1","nathalie","24","08/1996","Single","English","French","Female","White or Caucasian","No","Undergraduate degree","Yes, Graduate studies","N/A","N/A","N/A","5","5","5","0","0","0","0.699999972","stim/H120.jpg","65","76","0.5000000200000001","1","3","4","","2","3","1","1","2","3","2","2","3","2","3","2","6","5","4","5","4","4","7","3","4","4","2","2","4","2","3","2","5","3","4","5","4","6","5","6","5","6","5","5","3","4","3","3","4","1","2","1","2","1","2","1","2","2","1","3","2","3","4","4","4","agree","220.4899999924237","","","","","","","","<div style=""font-size:60px;"">?</div>","65","11","1","0.5"
"image-keyboard-response","56","225570","0.0-11.0-0.11","e476sbj7cmaw40w","1","nathalie","24","08/1996","Single","English","French","Female","White or Caucasian","No","Undergraduate degree","Yes, Graduate studies","N/A","N/A","N/A","5","5","5","0","0","0","0.699999972","stim/H120.jpg","65","76","0.5000000200000001","1","3","4","","2","3","1","1","2","3","2","2","3","2","3","2","6","5","4","5","4","4","7","3","4","4","2","2","4","2","3","2","5","3","4","5","4","6","5","6","5","6","5","5","3","4","3","3","4","1","2","1","2","1","2","1","2","2","1","3","2","3","4","4","4","agree","null","","","","","","","","stim/H230.jpg","null","","",""
"html-keyboard-response","57","225775","0.0-11.0-1.11","e476sbj7cmaw40w","1","nathalie","24","08/1996","Single","English","French","Female","White or Caucasian","No","Undergraduate degree","Yes, Graduate studies","N/A","N/A","N/A","5","5","5","0","0","0","0.699999972","stim/H120.jpg","65","76","0.5000000200000001","1","3","4","","2","3","1","1","2","3","2","2","3","2","3","2","6","5","4","5","4","4","7","3","4","4","2","2","4","2","3","2","5","3","4","5","4","6","5","6","5","6","5","5","3","4","3","3","4","1","2","1","2","1","2","1","2","2","1","3","2","3","4","4","4","agree","203.5349999932805","","","","","","","","<div style=""font-size:60px;"">?</div>","65","12","1","0.5"
"image-keyboard-response","58","226780","0.0-11.0-0.12","e476sbj7cmaw40w","1","nathalie","24","08/1996","Single","English","French","Female","White or Caucasian","No","Undergraduate degree","Yes, Graduate studies","N/A","N/A","N/A","5","5","5","0","0","0","0.699999972","stim/H120.jpg","65","76","0.5000000200000001","1","3","4","","2","3","1","1","2","3","2","2","3","2","3","2","6","5","4","5","4","4","7","3","4","4","2","2","4","2","3","2","5","3","4","5","4","6","5","6","5","6","5","5","3","4","3","3","4","1","2","1","2","1","2","1","2","2","1","3","2","3","4","4","4","agree","null","","","","","","","","stim/T260.jpg","null","","",""
"html-keyboard-response","59","227037","0.0-11.0-1.12","e476sbj7cmaw40w","1","nathalie","24","08/1996","Single","English","French","Female","White or Caucasian","No","Undergraduate degree","Yes, Graduate studies","N/A","N/A","N/A","5","5","5","0","0","0","0.699999972","stim/H120.jpg","65","76","0.5000000200000001","1","3","4","","2","3","1","1","2","3","2","2","3","2","3","2","6","5","4","5","4","4","7","3","4","4","2","2","4","2","3","2","5","3","4","5","4","6","5","6","5","6","5","5","3","4","3","3","4","1","2","1","2","1","2","1","2","2","1","3","2","3","4","4","4","agree","255.38499999674968","","","","","","","","<div style=""font-size:60px;"">?</div>","76","13","1","0.5"
"image-keyboard-response","60","228047","0.0-11.0-0.13","e476sbj7cmaw40w","1","nathalie","24","08/1996","Single","English","French","Female","White or Caucasian","No","Undergraduate degree","Yes, Graduate studies","N/A","N/A","N/A","5","5","5","0","0","0","0.699999972","stim/H120.jpg","65","76","0.5000000200000001","1","3","4","","2","3","1","1","2","3","2","2","3","2","3","2","6","5","4","5","4","4","7","3","4","4","2","2","4","2","3","2","5","3","4","5","4","6","5","6","5","6","5","5","3","4","3","3","4","1","2","1","2","1","2","1","2","2","1","3","2","3","4","4","4","agree","null","","","","","","","","stim/T060.jpg","null","","",""
"html-keyboard-response","61","228252","0.0-11.0-1.13","e476sbj7cmaw40w","1","nathalie","24","08/1996","Single","English","French","Female","White or Caucasian","No","Undergraduate degree","Yes, Graduate studies","N/A","N/A","N/A","5","5","5","0","0","0","0.699999972","stim/H120.jpg","65","76","0.5000000200000001","1","3","4","","2","3","1","1","2","3","2","2","3","2","3","2","6","5","4","5","4","4","7","3","4","4","2","2","4","2","3","2","5","3","4","5","4","6","5","6","5","6","5","5","3","4","3","3","4","1","2","1","2","1","2","1","2","2","1","3","2","3","4","4","4","agree","204.4000000023516","","","","","","","","<div style=""font-size:60px;"">?</div>","76","14","1","0.5"
"image-keyboard-response","62","229258","0.0-11.0-0.14","e476sbj7cmaw40w","1","nathalie","24","08/1996","Single","English","French","Female","White or Caucasian","No","Undergraduate degree","Yes, Graduate studies","N/A","N/A","N/A","5","5","5","0","0","0","0.699999972","stim/H120.jpg","65","76","0.5000000200000001","1","3","4","","2","3","1","1","2","3","2","2","3","2","3","2","6","5","4","5","4","4","7","3","4","4","2","2","4","2","3","2","5","3","4","5","4","6","5","6","5","6","5","5","3","4","3","3","4","1","2","1","2","1","2","1","2","2","1","3","2","3","4","4","4","agree","null","","","","","","","","stim/T230.jpg","null","","",""
"html-keyboard-response","63","229448","0.0-11.0-1.14","e476sbj7cmaw40w","1","nathalie","24","08/1996","Single","English","French","Female","White or Caucasian","No","Undergraduate degree","Yes, Graduate studies","N/A","N/A","N/A","5","5","5","0","0","0","0.699999972","stim/H120.jpg","65","76","0.5000000200000001","1","3","4","","2","3","1","1","2","3","2","2","3","2","3","2","6","5","4","5","4","4","7","3","4","4","2","2","4","2","3","2","5","3","4","5","4","6","5","6","5","6","5","5","3","4","3","3","4","1","2","1","2","1","2","1","2","2","1","3","2","3","4","4","4","agree","188.3700000034878","","","","","","","","<div style=""font-size:60px;"">?</div>","76","15","1","0.5"
"image-keyboard-response","64","230452","0.0-11.0-0.15","e476sbj7cmaw40w","1","nathalie","24","08/1996","Single","English","French","Female","White or Caucasian","No","Undergraduate degree","Yes, Graduate studies","N/A","N/A","N/A","5","5","5","0","0","0","0.699999972","stim/H120.jpg","65","76","0.5000000200000001","1","3","4","","2","3","1","1","2","3","2","2","3","2","3","2","6","5","4","5","4","4","7","3","4","4","2","2","4","2","3","2","5","3","4","5","4","6","5","6","5","6","5","5","3","4","3","3","4","1","2","1","2","1","2","1","2","2","1","3","2","3","4","4","4","agree","null","","","","","","","","stim/T250.jpg","null","","",""
"html-keyboard-response","65","230650","0.0-11.0-1.15","e476sbj7cmaw40w","1","nathalie","24","08/1996","Single","English","French","Female","White or Caucasian","No","Undergraduate degree","Yes, Graduate studies","N/A","N/A","N/A","5","5","5","0","0","0","0.699999972","stim/H120.jpg","65","76","0.5000000200000001","1","3","4","","2","3","1","1","2","3","2","2","3","2","3","2","6","5","4","5","4","4","7","3","4","4","2","2","4","2","3","2","5","3","4","5","4","6","5","6","5","6","5","5","3","4","3","3","4","1","2","1","2","1","2","1","2","2","1","3","2","3","4","4","4","agree","197.0149999979185","","","","","","","","<div style=""font-size:60px;"">?</div>","76","16","1","0.5"
"image-keyboard-response","66","231658","0.0-11.0-0.16","e476sbj7cmaw40w","1","nathalie","24","08/1996","Single","English","French","Female","White or Caucasian","No","Undergraduate degree","Yes, Graduate studies","N/A","N/A","N/A","5","5","5","0","0","0","0.699999972","stim/H120.jpg","65","76","0.5000000200000001","1","3","4","","2","3","1","1","2","3","2","2","3","2","3","2","6","5","4","5","4","4","7","3","4","4","2","2","4","2","3","2","5","3","4","5","4","6","5","6","5","6","5","5","3","4","3","3","4","1","2","1","2","1","2","1","2","2","1","3","2","3","4","4","4","agree","null","","","","","","","","stim/H270.jpg","null","","",""
"html-keyboard-response","67","231821","0.0-11.0-1.16","e476sbj7cmaw40w","1","nathalie","24","08/1996","Single","English","French","Female","White or Caucasian","No","Undergraduate degree","Yes, Graduate studies","N/A","N/A","N/A","5","5","5","0","0","0","0.699999972","stim/H120.jpg","65","76","0.5000000200000001","1","3","4","","2","3","1","1","2","3","2","2","3","2","3","2","6","5","4","5","4","4","7","3","4","4","2","2","4","2","3","2","5","3","4","5","4","6","5","6","5","6","5","5","3","4","3","3","4","1","2","1","2","1","2","1","2","2","1","3","2","3","4","4","4","agree","161.8799999996554","","","","","","","","<div style=""font-size:60px;"">?</div>","76","17","1","0.5"
"image-keyboard-response","68","232829","0.0-11.0-0.17","e476sbj7cmaw40w","1","nathalie","24","08/1996","Single","English","French","Female","White or Caucasian","No","Undergraduate degree","Yes, Graduate studies","N/A","N/A","N/A","5","5","5","0","0","0","0.699999972","stim/H120.jpg","65","76","0.5000000200000001","1","3","4","","2","3","1","1","2","3","2","2","3","2","3","2","6","5","4","5","4","4","7","3","4","4","2","2","4","2","3","2","5","3","4","5","4","6","5","6","5","6","5","5","3","4","3","3","4","1","2","1","2","1","2","1","2","2","1","3","2","3","4","4","4","agree","null","","","","","","","","stim/H160.jpg","null","","",""
"html-keyboard-response","69","233118","0.0-11.0-1.17","e476sbj7cmaw40w","1","nathalie","24","08/1996","Single","English","French","Female","White or Caucasian","No","Undergraduate degree","Yes, Graduate studies","N/A","N/A","N/A","5","5","5","0","0","0","0.699999972","stim/H120.jpg","65","76","0.5000000200000001","1","3","4","","2","3","1","1","2","3","2","2","3","2","3","2","6","5","4","5","4","4","7","3","4","4","2","2","4","2","3","2","5","3","4","5","4","6","5","6","5","6","5","5","3","4","3","3","4","1","2","1","2","1","2","1","2","2","1","3","2","3","4","4","4","agree","288.45999999612104","","","","","","","","<div style=""font-size:60px;"">?</div>","76","18","1","0.5"
"image-keyboard-response","70","234125","0.0-11.0-0.18","e476sbj7cmaw40w","1","nathalie","24","08/1996","Single","English","French","Female","White or Caucasian","No","Undergraduate degree","Yes, Graduate studies","N/A","N/A","N/A","5","5","5","0","0","0","0.699999972","stim/H120.jpg","65","76","0.5000000200000001","1","3","4","","2","3","1","1","2","3","2","2","3","2","3","2","6","5","4","5","4","4","7","3","4","4","2","2","4","2","3","2","5","3","4","5","4","6","5","6","5","6","5","5","3","4","3","3","4","1","2","1","2","1","2","1","2","2","1","3","2","3","4","4","4","agree","null","","","","","","","","stim/T300.jpg","null","","",""
"html-keyboard-response","71","234354","0.0-11.0-1.18","e476sbj7cmaw40w","1","nathalie","24","08/1996","Single","English","French","Female","White or Caucasian","No","Undergraduate degree","Yes, Graduate studies","N/A","N/A","N/A","5","5","5","0","0","0","0.699999972","stim/H120.jpg","65","76","0.5000000200000001","1","3","4","","2","3","1","1","2","3","2","2","3","2","3","2","6","5","4","5","4","4","7","3","4","4","2","2","4","2","3","2","5","3","4","5","4","6","5","6","5","6","5","5","3","4","3","3","4","1","2","1","2","1","2","1","2","2","1","3","2","3","4","4","4","agree","227.48000000137836","","","","","","","","<div style=""font-size:60px;"">?</div>","76","19","1","0.5"
"image-keyboard-response","72","235362","0.0-11.0-0.19","e476sbj7cmaw40w","1","nathalie","24","08/1996","Single","English","French","Female","White or Caucasian","No","Undergraduate degree","Yes, Graduate studies","N/A","N/A","N/A","5","5","5","0","0","0","0.699999972","stim/H120.jpg","65","76","0.5000000200000001","1","3","4","","2","3","1","1","2","3","2","2","3","2","3","2","6","5","4","5","4","4","7","3","4","4","2","2","4","2","3","2","5","3","4","5","4","6","5","6","5","6","5","5","3","4","3","3","4","1","2","1","2","1","2","1","2","2","1","3","2","3","4","4","4","agree","null","","","","","","","","stim/H240.jpg","null","","",""
"html-keyboard-response","73","235804","0.0-11.0-1.19","e476sbj7cmaw40w","1","nathalie","24","08/1996","Single","English","French","Female","White or Caucasian","No","Undergraduate degree","Yes, Graduate studies","N/A","N/A","N/A","5","5","5","0","0","0","0.699999972","stim/H120.jpg","65","76","0.5000000200000001","1","3","4","","2","3","1","1","2","3","2","2","3","2","3","2","6","5","4","5","4","4","7","3","4","4","2","2","4","2","3","2","5","3","4","5","4","6","5","6","5","6","5","5","3","4","3","3","4","1","2","1","2","1","2","1","2","2","1","3","2","3","4","4","4","agree","440.71500000427477","","","","","","","","<div style=""font-size:60px;"">?</div>","76","20","1","0.5"
"image-keyboard-response","74","236810","0.0-11.0-0.20","e476sbj7cmaw40w","1","nathalie","24","08/1996","Single","English","French","Female","White or Caucasian","No","Undergraduate degree","Yes, Graduate studies","N/A","N/A","N/A","5","5","5","0","0","0","0.699999972","stim/H120.jpg","65","76","0.5000000200000001","1","3","4","","2","3","1","1","2","3","2","2","3","2","3","2","6","5","4","5","4","4","7","3","4","4","2","2","4","2","3","2","5","3","4","5","4","6","5","6","5","6","5","5","3","4","3","3","4","1","2","1","2","1","2","1","2","2","1","3","2","3","4","4","4","agree","null","","","","","","","","stim/H130.jpg","null","","",""
"html-keyboard-response","75","236915","0.0-11.0-1.20","e476sbj7cmaw40w","1","nathalie","24","08/1996","Single","English","French","Female","White or Caucasian","No","Undergraduate degree","Yes, Graduate studies","N/A","N/A","N/A","5","5","5","0","0","0","0.699999972","stim/H120.jpg","65","76","0.5000000200000001","1","3","4","","2","3","1","1","2","3","2","2","3","2","3","2","6","5","4","5","4","4","7","3","4","4","2","2","4","2","3","2","5","3","4","5","4","6","5","6","5","6","5","5","3","4","3","3","4","1","2","1","2","1","2","1","2","2","1","3","2","3","4","4","4","agree","103.51000000082422","","","","","","","","<div style=""font-size:60px;"">?</div>","76","21","1","0.5"
"image-keyboard-response","76","237919","0.0-11.0-0.21","e476sbj7cmaw40w","1","nathalie","24","08/1996","Single","English","French","Female","White or Caucasian","No","Undergraduate degree","Yes, Graduate studies","N/A","N/A","N/A","5","5","5","0","0","0","0.699999972","stim/H120.jpg","65","76","0.5000000200000001","1","3","4","","2","3","1","1","2","3","2","2","3","2","3","2","6","5","4","5","4","4","7","3","4","4","2","2","4","2","3","2","5","3","4","5","4","6","5","6","5","6","5","5","3","4","3","3","4","1","2","1","2","1","2","1","2","2","1","3","2","3","4","4","4","agree","null","","","","","","","","stim/H240.jpg","null","","",""
"html-keyboard-response","77","238204","0.0-11.0-1.21","e476sbj7cmaw40w","1","nathalie","24","08/1996","Single","English","French","Female","White or Caucasian","No","Undergraduate degree","Yes, Graduate studies","N/A","N/A","N/A","5","5","5","0","0","0","0.699999972","stim/H120.jpg","65","76","0.5000000200000001","1","3","4","","2","3","1","1","2","3","2","2","3","2","3","2","6","5","4","5","4","4","7","3","4","4","2","2","4","2","3","2","5","3","4","5","4","6","5","6","5","6","5","5","3","4","3","3","4","1","2","1","2","1","2","1","2","2","1","3","2","3","4","4","4","agree","283.75999999116175","","","","","","","","<div style=""font-size:60px;"">?</div>","76","22","1","0.5"
"image-keyboard-response","78","239210","0.0-11.0-0.22","e476sbj7cmaw40w","1","nathalie","24","08/1996","Single","English","French","Female","White or Caucasian","No","Undergraduate degree","Yes, Graduate studies","N/A","N/A","N/A","5","5","5","0","0","0","0.699999972","stim/H120.jpg","65","76","0.5000000200000001","1","3","4","","2","3","1","1","2","3","2","2","3","2","3","2","6","5","4","5","4","4","7","3","4","4","2","2","4","2","3","2","5","3","4","5","4","6","5","6","5","6","5","5","3","4","3","3","4","1","2","1","2","1","2","1","2","2","1","3","2","3","4","4","4","agree","null","","","","","","","","stim/T060.jpg","null","","",""
"html-keyboard-response","79","239486","0.0-11.0-1.22","e476sbj7cmaw40w","1","nathalie","24","08/1996","Single","English","French","Female","White or Caucasian","No","Undergraduate degree","Yes, Graduate studies","N/A","N/A","N/A","5","5","5","0","0","0","0.699999972","stim/H120.jpg","65","76","0.5000000200000001","1","3","4","","2","3","1","1","2","3","2","2","3","2","3","2","6","5","4","5","4","4","7","3","4","4","2","2","4","2","3","2","5","3","4","5","4","6","5","6","5","6","5","5","3","4","3","3","4","1","2","1","2","1","2","1","2","2","1","3","2","3","4","4","4","agree","274.20499999425374","","","","","","","","<div style=""font-size:60px;"">?</div>","76","23","1","0.5"
"image-keyboard-response","80","240490","0.0-11.0-0.23","e476sbj7cmaw40w","1","nathalie","24","08/1996","Single","English","French","Female","White or Caucasian","No","Undergraduate degree","Yes, Graduate studies","N/A","N/A","N/A","5","5","5","0","0","0","0.699999972","stim/H120.jpg","65","76","0.5000000200000001","1","3","4","","2","3","1","1","2","3","2","2","3","2","3","2","6","5","4","5","4","4","7","3","4","4","2","2","4","2","3","2","5","3","4","5","4","6","5","6","5","6","5","5","3","4","3","3","4","1","2","1","2","1","2","1","2","2","1","3","2","3","4","4","4","agree","null","","","","","","","","stim/T150.jpg","null","","",""
"html-keyboard-response","81","240840","0.0-11.0-1.23","e476sbj7cmaw40w","1","nathalie","24","08/1996","Single","English","French","Female","White or Caucasian","No","Undergraduate degree","Yes, Graduate studies","N/A","N/A","N/A","5","5","5","0","0","0","0.699999972","stim/H120.jpg","65","76","0.5000000200000001","1","3","4","","2","3","1","1","2","3","2","2","3","2","3","2","6","5","4","5","4","4","7","3","4","4","2","2","4","2","3","2","5","3","4","5","4","6","5","6","5","6","5","5","3","4","3","3","4","1","2","1","2","1","2","1","2","2","1","3","2","3","4","4","4","agree","349.6000000013737","","","","","","","","<div style=""font-size:60px;"">?</div>","76","24","1","0.5"
"image-keyboard-response","82","241847","0.0-11.0-0.24","e476sbj7cmaw40w","1","nathalie","24","08/1996","Single","English","French","Female","White or Caucasian","No","Undergraduate degree","Yes, Graduate studies","N/A","N/A","N/A","5","5","5","0","0","0","0.699999972","stim/H120.jpg","65","76","0.5000000200000001","1","3","4","","2","3","1","1","2","3","2","2","3","2","3","2","6","5","4","5","4","4","7","3","4","4","2","2","4","2","3","2","5","3","4","5","4","6","5","6","5","6","5","5","3","4","3","3","4","1","2","1","2","1","2","1","2","2","1","3","2","3","4","4","4","agree","null","","","","","","","","stim/T120.jpg","null","","",""
"html-keyboard-response","83","242053","0.0-11.0-1.24","e476sbj7cmaw40w","1","nathalie","24","08/1996","Single","English","French","Female","White or Caucasian","No","Undergraduate degree","Yes, Graduate studies","N/A","N/A","N/A","5","5","5","0","0","0","0.699999972","stim/H120.jpg","65","76","0.5000000200000001","1","3","4","","2","3","1","1","2","3","2","2","3","2","3","2","6","5","4","5","4","4","7","3","4","4","2","2","4","2","3","2","5","3","4","5","4","6","5","6","5","6","5","5","3","4","3","3","4","1","2","1","2","1","2","1","2","2","1","3","2","3","4","4","4","agree","204.939999995986","","","","","","","","<div style=""font-size:60px;"">?</div>","76","25","1","0.5"
"image-keyboard-response","84","243059","0.0-11.0-0.25","e476sbj7cmaw40w","1","nathalie","24","08/1996","Single","English","French","Female","White or Caucasian","No","Undergraduate degree","Yes, Graduate studies","N/A","N/A","N/A","5","5","5","0","0","0","0.699999972","stim/H120.jpg","65","76","0.5000000200000001","1","3","4","","2","3","1","1","2","3","2","2","3","2","3","2","6","5","4","5","4","4","7","3","4","4","2","2","4","2","3","2","5","3","4","5","4","6","5","6","5","6","5","5","3","4","3","3","4","1","2","1","2","1","2","1","2","2","1","3","2","3","4","4","4","agree","null","","","","","","","","stim/H270.jpg","null","","",""
"html-keyboard-response","85","243212","0.0-11.0-1.25","e476sbj7cmaw40w","1","nathalie","24","08/1996","Single","English","French","Female","White or Caucasian","No","Undergraduate degree","Yes, Graduate studies","N/A","N/A","N/A","5","5","5","0","0","0","0.699999972","stim/H120.jpg","65","76","0.5000000200000001","1","3","4","","2","3","1","1","2","3","2","2","3","2","3","2","6","5","4","5","4","4","7","3","4","4","2","2","4","2","3","2","5","3","4","5","4","6","5","6","5","6","5","5","3","4","3","3","4","1","2","1","2","1","2","1","2","2","1","3","2","3","4","4","4","agree","151.77499999117572","","","","","","","","<div style=""font-size:60px;"">?</div>","76","26","1","0.5"
"image-keyboard-response","86","244218","0.0-11.0-0.26","e476sbj7cmaw40w","1","nathalie","24","08/1996","Single","English","French","Female","White or Caucasian","No","Undergraduate degree","Yes, Graduate studies","N/A","N/A","N/A","5","5","5","0","0","0","0.699999972","stim/H120.jpg","65","76","0.5000000200000001","1","3","4","","2","3","1","1","2","3","2","2","3","2","3","2","6","5","4","5","4","4","7","3","4","4","2","2","4","2","3","2","5","3","4","5","4","6","5","6","5","6","5","5","3","4","3","3","4","1","2","1","2","1","2","1","2","2","1","3","2","3","4","4","4","agree","null","","","","","","","","stim/H090.jpg","null","","",""
"html-keyboard-response","87","244362","0.0-11.0-1.26","e476sbj7cmaw40w","1","nathalie","24","08/1996","Single","English","French","Female","White or Caucasian","No","Undergraduate degree","Yes, Graduate studies","N/A","N/A","N/A","5","5","5","0","0","0","0.699999972","stim/H120.jpg","65","76","0.5000000200000001","1","3","4","","2","3","1","1","2","3","2","2","3","2","3","2","6","5","4","5","4","4","7","3","4","4","2","2","4","2","3","2","5","3","4","5","4","6","5","6","5","6","5","5","3","4","3","3","4","1","2","1","2","1","2","1","2","2","1","3","2","3","4","4","4","agree","143.2349999959115","","","","","","","","<div style=""font-size:60px;"">?</div>","76","27","1","0.5"
"image-keyboard-response","88","245369","0.0-11.0-0.27","e476sbj7cmaw40w","1","nathalie","24","08/1996","Single","English","French","Female","White or Caucasian","No","Undergraduate degree","Yes, Graduate studies","N/A","N/A","N/A","5","5","5","0","0","0","0.699999972","stim/H120.jpg","65","76","0.5000000200000001","1","3","4","","2","3","1","1","2","3","2","2","3","2","3","2","6","5","4","5","4","4","7","3","4","4","2","2","4","2","3","2","5","3","4","5","4","6","5","6","5","6","5","5","3","4","3","3","4","1","2","1","2","1","2","1","2","2","1","3","2","3","4","4","4","agree","null","","","","","","","","stim/T280.jpg","null","","",""
"html-keyboard-response","89","245575","0.0-11.0-1.27","e476sbj7cmaw40w","1","nathalie","24","08/1996","Single","English","French","Female","White or Caucasian","No","Undergraduate degree","Yes, Graduate studies","N/A","N/A","N/A","5","5","5","0","0","0","0.699999972","stim/H120.jpg","65","76","0.5000000200000001","1","3","4","","2","3","1","1","2","3","2","2","3","2","3","2","6","5","4","5","4","4","7","3","4","4","2","2","4","2","3","2","5","3","4","5","4","6","5","6","5","6","5","5","3","4","3","3","4","1","2","1","2","1","2","1","2","2","1","3","2","3","4","4","4","agree","205.33500000601634","","","","","","","","<div style=""font-size:60px;"">?</div>","76","28","1","0.5"
"image-keyboard-response","90","246585","0.0-11.0-0.28","e476sbj7cmaw40w","1","nathalie","24","08/1996","Single","English","French","Female","White or Caucasian","No","Undergraduate degree","Yes, Graduate studies","N/A","N/A","N/A","5","5","5","0","0","0","0.699999972","stim/H120.jpg","65","76","0.5000000200000001","1","3","4","","2","3","1","1","2","3","2","2","3","2","3","2","6","5","4","5","4","4","7","3","4","4","2","2","4","2","3","2","5","3","4","5","4","6","5","6","5","6","5","5","3","4","3","3","4","1","2","1","2","1","2","1","2","2","1","3","2","3","4","4","4","agree","null","","","","","","","","stim/T100.jpg","null","","",""
"html-keyboard-response","91","246836","0.0-11.0-1.28","e476sbj7cmaw40w","1","nathalie","24","08/1996","Single","English","French","Female","White or Caucasian","No","Undergraduate degree","Yes, Graduate studies","N/A","N/A","N/A","5","5","5","0","0","0","0.699999972","stim/H120.jpg","65","76","0.5000000200000001","1","3","4","","2","3","1","1","2","3","2","2","3","2","3","2","6","5","4","5","4","4","7","3","4","4","2","2","4","2","3","2","5","3","4","5","4","6","5","6","5","6","5","5","3","4","3","3","4","1","2","1","2","1","2","1","2","2","1","3","2","3","4","4","4","agree","249.71000000368804","","","","","","","","<div style=""font-size:60px;"">?</div>","76","29","1","0.5"
"image-keyboard-response","92","247844","0.0-11.0-0.29","e476sbj7cmaw40w","1","nathalie","24","08/1996","Single","English","French","Female","White or Caucasian","No","Undergraduate degree","Yes, Graduate studies","N/A","N/A","N/A","5","5","5","0","0","0","0.699999972","stim/H120.jpg","65","76","0.5000000200000001","1","3","4","","2","3","1","1","2","3","2","2","3","2","3","2","6","5","4","5","4","4","7","3","4","4","2","2","4","2","3","2","5","3","4","5","4","6","5","6","5","6","5","5","3","4","3","3","4","1","2","1","2","1","2","1","2","2","1","3","2","3","4","4","4","agree","null","","","","","","","","stim/T260.jpg","null","","",""
"html-keyboard-response","93","248040","0.0-11.0-1.29","e476sbj7cmaw40w","1","nathalie","24","08/1996","Single","English","French","Female","White or Caucasian","No","Undergraduate degree","Yes, Graduate studies","N/A","N/A","N/A","5","5","5","0","0","0","0.699999972","stim/H120.jpg","65","76","0.5000000200000001","1","3","4","","2","3","1","1","2","3","2","2","3","2","3","2","6","5","4","5","4","4","7","3","4","4","2","2","4","2","3","2","5","3","4","5","4","6","5","6","5","6","5","5","3","4","3","3","4","1","2","1","2","1","2","1","2","2","1","3","2","3","4","4","4","agree","195.32000001345295","","","","","","","","<div style=""font-size:60px;"">?</div>","76","30","1","0.5"
"image-keyboard-response","94","249049","0.0-11.0-0.30","e476sbj7cmaw40w","1","nathalie","24","08/1996","Single","English","French","Female","White or Caucasian","No","Undergraduate degree","Yes, Graduate studies","N/A","N/A","N/A","5","5","5","0","0","0","0.699999972","stim/H120.jpg","65","76","0.5000000200000001","1","3","4","","2","3","1","1","2","3","2","2","3","2","3","2","6","5","4","5","4","4","7","3","4","4","2","2","4","2","3","2","5","3","4","5","4","6","5","6","5","6","5","5","3","4","3","3","4","1","2","1","2","1","2","1","2","2","1","3","2","3","4","4","4","agree","null","","","","","","","","stim/T180.jpg","null","","",""
"html-keyboard-response","95","249234","0.0-11.0-1.30","e476sbj7cmaw40w","1","nathalie","24","08/1996","Single","English","French","Female","White or Caucasian","No","Undergraduate degree","Yes, Graduate studies","N/A","N/A","N/A","5","5","5","0","0","0","0.699999972","stim/H120.jpg","65","76","0.5000000200000001","1","3","4","","2","3","1","1","2","3","2","2","3","2","3","2","6","5","4","5","4","4","7","3","4","4","2","2","4","2","3","2","5","3","4","5","4","6","5","6","5","6","5","5","3","4","3","3","4","1","2","1","2","1","2","1","2","2","1","3","2","3","4","4","4","agree","184.81000000610948","","","","","","","","<div style=""font-size:60px;"">?</div>","76","31","1","0.5"
"image-keyboard-response","96","250240","0.0-11.0-0.31","e476sbj7cmaw40w","1","nathalie","24","08/1996","Single","English","French","Female","White or Caucasian","No","Undergraduate degree","Yes, Graduate studies","N/A","N/A","N/A","5","5","5","0","0","0","0.699999972","stim/H120.jpg","65","76","0.5000000200000001","1","3","4","","2","3","1","1","2","3","2","2","3","2","3","2","6","5","4","5","4","4","7","3","4","4","2","2","4","2","3","2","5","3","4","5","4","6","5","6","5","6","5","5","3","4","3","3","4","1","2","1","2","1","2","1","2","2","1","3","2","3","4","4","4","agree","null","","","","","","","","stim/H210.jpg","null","","",""
"html-keyboard-response","97","250472","0.0-11.0-1.31","e476sbj7cmaw40w","1","nathalie","24","08/1996","Single","English","French","Female","White or Caucasian","No","Undergraduate degree","Yes, Graduate studies","N/A","N/A","N/A","5","5","5","0","0","0","0.699999972","stim/H120.jpg","65","76","0.5000000200000001","1","3","4","","2","3","1","1","2","3","2","2","3","2","3","2","6","5","4","5","4","4","7","3","4","4","2","2","4","2","3","2","5","3","4","5","4","6","5","6","5","6","5","5","3","4","3","3","4","1","2","1","2","1","2","1","2","2","1","3","2","3","4","4","4","agree","231.8550000054529","","","","","","","","<div style=""font-size:60px;"">?</div>","76","32","1","0.5"
"image-keyboard-response","98","251480","0.0-11.0-0.32","e476sbj7cmaw40w","1","nathalie","24","08/1996","Single","English","French","Female","White or Caucasian","No","Undergraduate degree","Yes, Graduate studies","N/A","N/A","N/A","5","5","5","0","0","0","0.699999972","stim/H120.jpg","65","76","0.5000000200000001","1","3","4","","2","3","1","1","2","3","2","2","3","2","3","2","6","5","4","5","4","4","7","3","4","4","2","2","4","2","3","2","5","3","4","5","4","6","5","6","5","6","5","5","3","4","3","3","4","1","2","1","2","1","2","1","2","2","1","3","2","3","4","4","4","agree","null","","","","","","","","stim/H160.jpg","null","","",""
"html-keyboard-response","99","251630","0.0-11.0-1.32","e476sbj7cmaw40w","1","nathalie","24","08/1996","Single","English","French","Female","White or Caucasian","No","Undergraduate degree","Yes, Graduate studies","N/A","N/A","N/A","5","5","5","0","0","0","0.699999972","stim/H120.jpg","65","76","0.5000000200000001","1","3","4","","2","3","1","1","2","3","2","2","3","2","3","2","6","5","4","5","4","4","7","3","4","4","2","2","4","2","3","2","5","3","4","5","4","6","5","6","5","6","5","5","3","4","3","3","4","1","2","1","2","1","2","1","2","2","1","3","2","3","4","4","4","agree","149.20499999425374","","","","","","","","<div style=""font-size:60px;"">?</div>","76","33","1","0.5"
"image-keyboard-response","100","252634","0.0-11.0-0.33","e476sbj7cmaw40w","1","nathalie","24","08/1996","Single","English","French","Female","White or Caucasian","No","Undergraduate degree","Yes, Graduate studies","N/A","N/A","N/A","5","5","5","0","0","0","0.699999972","stim/H120.jpg","65","76","0.5000000200000001","1","3","4","","2","3","1","1","2","3","2","2","3","2","3","2","6","5","4","5","4","4","7","3","4","4","2","2","4","2","3","2","5","3","4","5","4","6","5","6","5","6","5","5","3","4","3","3","4","1","2","1","2","1","2","1","2","2","1","3","2","3","4","4","4","agree","null","","","","","","","","stim/H270.jpg","null","","",""
"html-keyboard-response","101","252877","0.0-11.0-1.33","e476sbj7cmaw40w","1","nathalie","24","08/1996","Single","English","French","Female","White or Caucasian","No","Undergraduate degree","Yes, Graduate studies","N/A","N/A","N/A","5","5","5","0","0","0","0.699999972","stim/H120.jpg","65","76","0.5000000200000001","1","3","4","","2","3","1","1","2","3","2","2","3","2","3","2","6","5","4","5","4","4","7","3","4","4","2","2","4","2","3","2","5","3","4","5","4","6","5","6","5","6","5","5","3","4","3","3","4","1","2","1","2","1","2","1","2","2","1","3","2","3","4","4","4","agree","242.26500000804663","","","","","","","","<div style=""font-size:60px;"">?</div>","76","34","1","0.5"
"image-keyboard-response","102","253881","0.0-11.0-0.34","e476sbj7cmaw40w","1","nathalie","24","08/1996","Single","English","French","Female","White or Caucasian","No","Undergraduate degree","Yes, Graduate studies","N/A","N/A","N/A","5","5","5","0","0","0","0.699999972","stim/H120.jpg","65","76","0.5000000200000001","1","3","4","","2","3","1","1","2","3","2","2","3","2","3","2","6","5","4","5","4","4","7","3","4","4","2","2","4","2","3","2","5","3","4","5","4","6","5","6","5","6","5","5","3","4","3","3","4","1","2","1","2","1","2","1","2","2","1","3","2","3","4","4","4","agree","null","","","","","","","","stim/T180.jpg","null","","",""
"html-keyboard-response","103","254002","0.0-11.0-1.34","e476sbj7cmaw40w","1","nathalie","24","08/1996","Single","English","French","Female","White or Caucasian","No","Undergraduate degree","Yes, Graduate studies","N/A","N/A","N/A","5","5","5","0","0","0","0.699999972","stim/H120.jpg","65","76","0.5000000200000001","1","3","4","","2","3","1","1","2","3","2","2","3","2","3","2","6","5","4","5","4","4","7","3","4","4","2","2","4","2","3","2","5","3","4","5","4","6","5","6","5","6","5","5","3","4","3","3","4","1","2","1","2","1","2","1","2","2","1","3","2","3","4","4","4","agree","119.93500000971835","","","","","","","","<div style=""font-size:60px;"">?</div>","76","35","1","0.5"
"image-keyboard-response","104","255007","0.0-11.0-0.35","e476sbj7cmaw40w","1","nathalie","24","08/1996","Single","English","French","Female","White or Caucasian","No","Undergraduate degree","Yes, Graduate studies","N/A","N/A","N/A","5","5","5","0","0","0","0.699999972","stim/H120.jpg","65","76","0.5000000200000001","1","3","4","","2","3","1","1","2","3","2","2","3","2","3","2","6","5","4","5","4","4","7","3","4","4","2","2","4","2","3","2","5","3","4","5","4","6","5","6","5","6","5","5","3","4","3","3","4","1","2","1","2","1","2","1","2","2","1","3","2","3","4","4","4","agree","null","","","","","","","","stim/T010.jpg","null","","",""
"html-keyboard-response","105","255219","0.0-11.0-1.35","e476sbj7cmaw40w","1","nathalie","24","08/1996","Single","English","French","Female","White or Caucasian","No","Undergraduate degree","Yes, Graduate studies","N/A","N/A","N/A","5","5","5","0","0","0","0.699999972","stim/H120.jpg","65","76","0.5000000200000001","1","3","4","","2","3","1","1","2","3","2","2","3","2","3","2","6","5","4","5","4","4","7","3","4","4","2","2","4","2","3","2","5","3","4","5","4","6","5","6","5","6","5","5","3","4","3","3","4","1","2","1","2","1","2","1","2","2","1","3","2","3","4","4","4","agree","211.10000000044238","","","","","","","","<div style=""font-size:60px;"">?</div>","76","36","1","0.5"
"image-keyboard-response","106","256223","0.0-11.0-0.36","e476sbj7cmaw40w","1","nathalie","24","08/1996","Single","English","French","Female","White or Caucasian","No","Undergraduate degree","Yes, Graduate studies","N/A","N/A","N/A","5","5","5","0","0","0","0.699999972","stim/H120.jpg","65","76","0.5000000200000001","1","3","4","","2","3","1","1","2","3","2","2","3","2","3","2","6","5","4","5","4","4","7","3","4","4","2","2","4","2","3","2","5","3","4","5","4","6","5","6","5","6","5","5","3","4","3","3","4","1","2","1","2","1","2","1","2","2","1","3","2","3","4","4","4","agree","null","","","","","","","","stim/H190.jpg","null","","",""
"html-keyboard-response","107","256358","0.0-11.0-1.36","e476sbj7cmaw40w","1","nathalie","24","08/1996","Single","English","French","Female","White or Caucasian","No","Undergraduate degree","Yes, Graduate studies","N/A","N/A","N/A","5","5","5","0","0","0","0.699999972","stim/H120.jpg","65","76","0.5000000200000001","1","3","4","","2","3","1","1","2","3","2","2","3","2","3","2","6","5","4","5","4","4","7","3","4","4","2","2","4","2","3","2","5","3","4","5","4","6","5","6","5","6","5","5","3","4","3","3","4","1","2","1","2","1","2","1","2","2","1","3","2","3","4","4","4","agree","133.99499999650288","","","","","","","","<div style=""font-size:60px;"">?</div>","76","37","1","0.5"
"image-keyboard-response","108","257364","0.0-11.0-0.37","e476sbj7cmaw40w","1","nathalie","24","08/1996","Single","English","French","Female","White or Caucasian","No","Undergraduate degree","Yes, Graduate studies","N/A","N/A","N/A","5","5","5","0","0","0","0.699999972","stim/H120.jpg","65","76","0.5000000200000001","1","3","4","","2","3","1","1","2","3","2","2","3","2","3","2","6","5","4","5","4","4","7","3","4","4","2","2","4","2","3","2","5","3","4","5","4","6","5","6","5","6","5","5","3","4","3","3","4","1","2","1","2","1","2","1","2","2","1","3","2","3","4","4","4","agree","null","","","","","","","","stim/H090.jpg","null","","",""
"html-keyboard-response","109","257553","0.0-11.0-1.37","e476sbj7cmaw40w","1","nathalie","24","08/1996","Single","English","French","Female","White or Caucasian","No","Undergraduate degree","Yes, Graduate studies","N/A","N/A","N/A","5","5","5","0","0","0","0.699999972","stim/H120.jpg","65","76","0.5000000200000001","1","3","4","","2","3","1","1","2","3","2","2","3","2","3","2","6","5","4","5","4","4","7","3","4","4","2","2","4","2","3","2","5","3","4","5","4","6","5","6","5","6","5","5","3","4","3","3","4","1","2","1","2","1","2","1","2","2","1","3","2","3","4","4","4","agree","187.77499999850988","","","","","","","","<div style=""font-size:60px;"">?</div>","76","38","1","0.5"
"image-keyboard-response","110","258558","0.0-11.0-0.38","e476sbj7cmaw40w","1","nathalie","24","08/1996","Single","English","French","Female","White or Caucasian","No","Undergraduate degree","Yes, Graduate studies","N/A","N/A","N/A","5","5","5","0","0","0","0.699999972","stim/H120.jpg","65","76","0.5000000200000001","1","3","4","","2","3","1","1","2","3","2","2","3","2","3","2","6","5","4","5","4","4","7","3","4","4","2","2","4","2","3","2","5","3","4","5","4","6","5","6","5","6","5","5","3","4","3","3","4","1","2","1","2","1","2","1","2","2","1","3","2","3","4","4","4","agree","null","","","","","","","","stim/H180.jpg","null","","",""
"html-keyboard-response","111","258732","0.0-11.0-1.38","e476sbj7cmaw40w","1","nathalie","24","08/1996","Single","English","French","Female","White or Caucasian","No","Undergraduate degree","Yes, Graduate studies","N/A","N/A","N/A","5","5","5","0","0","0","0.699999972","stim/H120.jpg","65","76","0.5000000200000001","1","3","4","","2","3","1","1","2","3","2","2","3","2","3","2","6","5","4","5","4","4","7","3","4","4","2","2","4","2","3","2","5","3","4","5","4","6","5","6","5","6","5","5","3","4","3","3","4","1","2","1","2","1","2","1","2","2","1","3","2","3","4","4","4","agree","172.34999999345746","","","","","","","","<div style=""font-size:60px;"">?</div>","76","39","1","0.5"
"image-keyboard-response","112","259737","0.0-11.0-0.39","e476sbj7cmaw40w","1","nathalie","24","08/1996","Single","English","French","Female","White or Caucasian","No","Undergraduate degree","Yes, Graduate studies","N/A","N/A","N/A","5","5","5","0","0","0","0.699999972","stim/H120.jpg","65","76","0.5000000200000001","1","3","4","","2","3","1","1","2","3","2","2","3","2","3","2","6","5","4","5","4","4","7","3","4","4","2","2","4","2","3","2","5","3","4","5","4","6","5","6","5","6","5","5","3","4","3","3","4","1","2","1","2","1","2","1","2","2","1","3","2","3","4","4","4","agree","null","","","","","","","","stim/H240.jpg","null","","",""
"html-keyboard-response","113","259985","0.0-11.0-1.39","e476sbj7cmaw40w","1","nathalie","24","08/1996","Single","English","French","Female","White or Caucasian","No","Undergraduate degree","Yes, Graduate studies","N/A","N/A","N/A","5","5","5","0","0","0","0.699999972","stim/H120.jpg","65","76","0.5000000200000001","1","3","4","","2","3","1","1","2","3","2","2","3","2","3","2","6","5","4","5","4","4","7","3","4","4","2","2","4","2","3","2","5","3","4","5","4","6","5","6","5","6","5","5","3","4","3","3","4","1","2","1","2","1","2","1","2","2","1","3","2","3","4","4","4","agree","247.35999999393243","","","","","","","","<div style=""font-size:60px;"">?</div>","76","40","1","0.5"
"image-keyboard-response","114","260990","0.0-11.0-0.40","e476sbj7cmaw40w","1","nathalie","24","08/1996","Single","English","French","Female","White or Caucasian","No","Undergraduate degree","Yes, Graduate studies","N/A","N/A","N/A","5","5","5","0","0","0","0.699999972","stim/H120.jpg","65","76","0.5000000200000001","1","3","4","","2","3","1","1","2","3","2","2","3","2","3","2","6","5","4","5","4","4","7","3","4","4","2","2","4","2","3","2","5","3","4","5","4","6","5","6","5","6","5","5","3","4","3","3","4","1","2","1","2","1","2","1","2","2","1","3","2","3","4","4","4","agree","null","","","","","","","","stim/H290.jpg","null","","",""
"html-keyboard-response","115","261223","0.0-11.0-1.40","e476sbj7cmaw40w","1","nathalie","24","08/1996","Single","English","French","Female","White or Caucasian","No","Undergraduate degree","Yes, Graduate studies","N/A","N/A","N/A","5","5","5","0","0","0","0.699999972","stim/H120.jpg","65","76","0.5000000200000001","1","3","4","","2","3","1","1","2","3","2","2","3","2","3","2","6","5","4","5","4","4","7","3","4","4","2","2","4","2","3","2","5","3","4","5","4","6","5","6","5","6","5","5","3","4","3","3","4","1","2","1","2","1","2","1","2","2","1","3","2","3","4","4","4","agree","231.82499999529682","","","","","","","","<div style=""font-size:60px;"">?</div>","76","41","1","0.5"
"image-keyboard-response","116","262229","0.0-11.0-0.41","e476sbj7cmaw40w","1","nathalie","24","08/1996","Single","English","French","Female","White or Caucasian","No","Undergraduate degree","Yes, Graduate studies","N/A","N/A","N/A","5","5","5","0","0","0","0.699999972","stim/H120.jpg","65","76","0.5000000200000001","1","3","4","","2","3","1","1","2","3","2","2","3","2","3","2","6","5","4","5","4","4","7","3","4","4","2","2","4","2","3","2","5","3","4","5","4","6","5","6","5","6","5","5","3","4","3","3","4","1","2","1","2","1","2","1","2","2","1","3","2","3","4","4","4","agree","null","","","","","","","","stim/T140.jpg","null","","",""
"html-keyboard-response","117","262286","0.0-11.0-1.41","e476sbj7cmaw40w","1","nathalie","24","08/1996","Single","English","French","Female","White or Caucasian","No","Undergraduate degree","Yes, Graduate studies","N/A","N/A","N/A","5","5","5","0","0","0","0.699999972","stim/H120.jpg","65","76","0.5000000200000001","1","3","4","","2","3","1","1","2","3","2","2","3","2","3","2","6","5","4","5","4","4","7","3","4","4","2","2","4","2","3","2","5","3","4","5","4","6","5","6","5","6","5","5","3","4","3","3","4","1","2","1","2","1","2","1","2","2","1","3","2","3","4","4","4","agree","55.87999999988824","","","","","","","","<div style=""font-size:60px;"">?</div>","76","42","1","0.5"
"image-keyboard-response","118","263296","0.0-11.0-0.42","e476sbj7cmaw40w","1","nathalie","24","08/1996","Single","English","French","Female","White or Caucasian","No","Undergraduate degree","Yes, Graduate studies","N/A","N/A","N/A","5","5","5","0","0","0","0.699999972","stim/H120.jpg","65","76","0.5000000200000001","1","3","4","","2","3","1","1","2","3","2","2","3","2","3","2","6","5","4","5","4","4","7","3","4","4","2","2","4","2","3","2","5","3","4","5","4","6","5","6","5","6","5","5","3","4","3","3","4","1","2","1","2","1","2","1","2","2","1","3","2","3","4","4","4","agree","null","","","","","","","","stim/H230.jpg","null","","",""
"html-keyboard-response","119","263511","0.0-11.0-1.42","e476sbj7cmaw40w","1","nathalie","24","08/1996","Single","English","French","Female","White or Caucasian","No","Undergraduate degree","Yes, Graduate studies","N/A","N/A","N/A","5","5","5","0","0","0","0.699999972","stim/H120.jpg","65","76","0.5000000200000001","1","3","4","","2","3","1","1","2","3","2","2","3","2","3","2","6","5","4","5","4","4","7","3","4","4","2","2","4","2","3","2","5","3","4","5","4","6","5","6","5","6","5","5","3","4","3","3","4","1","2","1","2","1","2","1","2","2","1","3","2","3","4","4","4","agree","214.510000005248","","","","","","","","<div style=""font-size:60px;"">?</div>","76","43","1","0.5"
"image-keyboard-response","120","264515","0.0-11.0-0.43","e476sbj7cmaw40w","1","nathalie","24","08/1996","Single","English","French","Female","White or Caucasian","No","Undergraduate degree","Yes, Graduate studies","N/A","N/A","N/A","5","5","5","0","0","0","0.699999972","stim/H120.jpg","65","76","0.5000000200000001","1","3","4","","2","3","1","1","2","3","2","2","3","2","3","2","6","5","4","5","4","4","7","3","4","4","2","2","4","2","3","2","5","3","4","5","4","6","5","6","5","6","5","5","3","4","3","3","4","1","2","1","2","1","2","1","2","2","1","3","2","3","4","4","4","agree","null","","","","","","","","stim/T150.jpg","null","","",""
"html-keyboard-response","121","264672","0.0-11.0-1.43","e476sbj7cmaw40w","1","nathalie","24","08/1996","Single","English","French","Female","White or Caucasian","No","Undergraduate degree","Yes, Graduate studies","N/A","N/A","N/A","5","5","5","0","0","0","0.699999972","stim/H120.jpg","65","76","0.5000000200000001","1","3","4","","2","3","1","1","2","3","2","2","3","2","3","2","6","5","4","5","4","4","7","3","4","4","2","2","4","2","3","2","5","3","4","5","4","6","5","6","5","6","5","5","3","4","3","3","4","1","2","1","2","1","2","1","2","2","1","3","2","3","4","4","4","agree","154.79499999491964","","","","","","","","<div style=""font-size:60px;"">?</div>","76","44","1","0.5"
"image-keyboard-response","122","265679","0.0-11.0-0.44","e476sbj7cmaw40w","1","nathalie","24","08/1996","Single","English","French","Female","White or Caucasian","No","Undergraduate degree","Yes, Graduate studies","N/A","N/A","N/A","5","5","5","0","0","0","0.699999972","stim/H120.jpg","65","76","0.5000000200000001","1","3","4","","2","3","1","1","2","3","2","2","3","2","3","2","6","5","4","5","4","4","7","3","4","4","2","2","4","2","3","2","5","3","4","5","4","6","5","6","5","6","5","5","3","4","3","3","4","1","2","1","2","1","2","1","2","2","1","3","2","3","4","4","4","agree","null","","","","","","","","stim/H300.jpg","null","","",""
"html-keyboard-response","123","265797","0.0-11.0-1.44","e476sbj7cmaw40w","1","nathalie","24","08/1996","Single","English","French","Female","White or Caucasian","No","Undergraduate degree","Yes, Graduate studies","N/A","N/A","N/A","5","5","5","0","0","0","0.699999972","stim/H120.jpg","65","76","0.5000000200000001","1","3","4","","2","3","1","1","2","3","2","2","3","2","3","2","6","5","4","5","4","4","7","3","4","4","2","2","4","2","3","2","5","3","4","5","4","6","5","6","5","6","5","5","3","4","3","3","4","1","2","1","2","1","2","1","2","2","1","3","2","3","4","4","4","agree","114.89500000607222","","","","","","","","<div style=""font-size:60px;"">?</div>","76","45","1","0.5"
"image-keyboard-response","124","266803","0.0-11.0-0.45","e476sbj7cmaw40w","1","nathalie","24","08/1996","Single","English","French","Female","White or Caucasian","No","Undergraduate degree","Yes, Graduate studies","N/A","N/A","N/A","5","5","5","0","0","0","0.699999972","stim/H120.jpg","65","76","0.5000000200000001","1","3","4","","2","3","1","1","2","3","2","2","3","2","3","2","6","5","4","5","4","4","7","3","4","4","2","2","4","2","3","2","5","3","4","5","4","6","5","6","5","6","5","5","3","4","3","3","4","1","2","1","2","1","2","1","2","2","1","3","2","3","4","4","4","agree","null","","","","","","","","stim/H220.jpg","null","","",""
"html-keyboard-response","125","267027","0.0-11.0-1.45","e476sbj7cmaw40w","1","nathalie","24","08/1996","Single","English","French","Female","White or Caucasian","No","Undergraduate degree","Yes, Graduate studies","N/A","N/A","N/A","5","5","5","0","0","0","0.699999972","stim/H120.jpg","65","76","0.5000000200000001","1","3","4","","2","3","1","1","2","3","2","2","3","2","3","2","6","5","4","5","4","4","7","3","4","4","2","2","4","2","3","2","5","3","4","5","4","6","5","6","5","6","5","5","3","4","3","3","4","1","2","1","2","1","2","1","2","2","1","3","2","3","4","4","4","agree","223.1000000028871","","","","","","","","<div style=""font-size:60px;"">?</div>","76","46","1","0.5"
"image-keyboard-response","126","268034","0.0-11.0-0.46","e476sbj7cmaw40w","1","nathalie","24","08/1996","Single","English","French","Female","White or Caucasian","No","Undergraduate degree","Yes, Graduate studies","N/A","N/A","N/A","5","5","5","0","0","0","0.699999972","stim/H120.jpg","65","76","0.5000000200000001","1","3","4","","2","3","1","1","2","3","2","2","3","2","3","2","6","5","4","5","4","4","7","3","4","4","2","2","4","2","3","2","5","3","4","5","4","6","5","6","5","6","5","5","3","4","3","3","4","1","2","1","2","1","2","1","2","2","1","3","2","3","4","4","4","agree","null","","","","","","","","stim/H060.jpg","null","","",""
"html-keyboard-response","127","268194","0.0-11.0-1.46","e476sbj7cmaw40w","1","nathalie","24","08/1996","Single","English","French","Female","White or Caucasian","No","Undergraduate degree","Yes, Graduate studies","N/A","N/A","N/A","5","5","5","0","0","0","0.699999972","stim/H120.jpg","65","76","0.5000000200000001","1","3","4","","2","3","1","1","2","3","2","2","3","2","3","2","6","5","4","5","4","4","7","3","4","4","2","2","4","2","3","2","5","3","4","5","4","6","5","6","5","6","5","5","3","4","3","3","4","1","2","1","2","1","2","1","2","2","1","3","2","3","4","4","4","agree","158.2300000009127","","","","","","","","<div style=""font-size:60px;"">?</div>","76","47","1","0.5"
"image-keyboard-response","128","269198","0.0-11.0-0.47","e476sbj7cmaw40w","1","nathalie","24","08/1996","Single","English","French","Female","White or Caucasian","No","Undergraduate degree","Yes, Graduate studies","N/A","N/A","N/A","5","5","5","0","0","0","0.699999972","stim/H120.jpg","65","76","0.5000000200000001","1","3","4","","2","3","1","1","2","3","2","2","3","2","3","2","6","5","4","5","4","4","7","3","4","4","2","2","4","2","3","2","5","3","4","5","4","6","5","6","5","6","5","5","3","4","3","3","4","1","2","1","2","1","2","1","2","2","1","3","2","3","4","4","4","agree","null","","","","","","","","stim/T230.jpg","null","","",""
"html-keyboard-response","129","269404","0.0-11.0-1.47","e476sbj7cmaw40w","1","nathalie","24","08/1996","Single","English","French","Female","White or Caucasian","No","Undergraduate degree","Yes, Graduate studies","N/A","N/A","N/A","5","5","5","0","0","0","0.699999972","stim/H120.jpg","65","76","0.5000000200000001","1","3","4","","2","3","1","1","2","3","2","2","3","2","3","2","6","5","4","5","4","4","7","3","4","4","2","2","4","2","3","2","5","3","4","5","4","6","5","6","5","6","5","5","3","4","3","3","4","1","2","1","2","1","2","1","2","2","1","3","2","3","4","4","4","agree","204.48500000929926","","","","","","","","<div style=""font-size:60px;"">?</div>","76","48","1","0.5"
"image-keyboard-response","130","270412","0.0-11.0-0.48","e476sbj7cmaw40w","1","nathalie","24","08/1996","Single","English","French","Female","White or Caucasian","No","Undergraduate degree","Yes, Graduate studies","N/A","N/A","N/A","5","5","5","0","0","0","0.699999972","stim/H120.jpg","65","76","0.5000000200000001","1","3","4","","2","3","1","1","2","3","2","2","3","2","3","2","6","5","4","5","4","4","7","3","4","4","2","2","4","2","3","2","5","3","4","5","4","6","5","6","5","6","5","5","3","4","3","3","4","1","2","1","2","1","2","1","2","2","1","3","2","3","4","4","4","agree","null","","","","","","","","stim/H150.jpg","null","","",""
"html-keyboard-response","131","270498","0.0-11.0-1.48","e476sbj7cmaw40w","1","nathalie","24","08/1996","Single","English","French","Female","White or Caucasian","No","Undergraduate degree","Yes, Graduate studies","N/A","N/A","N/A","5","5","5","0","0","0","0.699999972","stim/H120.jpg","65","76","0.5000000200000001","1","3","4","","2","3","1","1","2","3","2","2","3","2","3","2","6","5","4","5","4","4","7","3","4","4","2","2","4","2","3","2","5","3","4","5","4","6","5","6","5","6","5","5","3","4","3","3","4","1","2","1","2","1","2","1","2","2","1","3","2","3","4","4","4","agree","83.9750000013737","","","","","","","","<div style=""font-size:60px;"">?</div>","76","49","1","0.5"
"image-keyboard-response","132","271501","0.0-11.0-0.49","e476sbj7cmaw40w","1","nathalie","24","08/1996","Single","English","French","Female","White or Caucasian","No","Undergraduate degree","Yes, Graduate studies","N/A","N/A","N/A","5","5","5","0","0","0","0.699999972","stim/H120.jpg","65","76","0.5000000200000001","1","3","4","","2","3","1","1","2","3","2","2","3","2","3","2","6","5","4","5","4","4","7","3","4","4","2","2","4","2","3","2","5","3","4","5","4","6","5","6","5","6","5","5","3","4","3","3","4","1","2","1","2","1","2","1","2","2","1","3","2","3","4","4","4","agree","null","","","","","","","","stim/T120.jpg","null","","",""
"html-keyboard-response","133","271651","0.0-11.0-1.49","e476sbj7cmaw40w","1","nathalie","24","08/1996","Single","English","French","Female","White or Caucasian","No","Undergraduate degree","Yes, Graduate studies","N/A","N/A","N/A","5","5","5","0","0","0","0.699999972","stim/H120.jpg","65","76","0.5000000200000001","1","3","4","","2","3","1","1","2","3","2","2","3","2","3","2","6","5","4","5","4","4","7","3","4","4","2","2","4","2","3","2","5","3","4","5","4","6","5","6","5","6","5","5","3","4","3","3","4","1","2","1","2","1","2","1","2","2","1","3","2","3","4","4","4","agree","148.87000000453554","","","","","","","","<div style=""font-size:60px;"">?</div>","76","50","1","0.5"
"html-keyboard-response","134","281156","0.0-12.0","e476sbj7cmaw40w","1","nathalie","24","08/1996","Single","English","French","Female","White or Caucasian","No","Undergraduate degree","Yes, Graduate studies","N/A","N/A","N/A","5","5","5","0","0","0","0.699999972","stim/H120.jpg","65","76","0.5000000200000001","1","3","4","","2","3","1","1","2","3","2","2","3","2","3","2","6","5","4","5","4","4","7","3","4","4","2","2","4","2","3","2","5","3","4","5","4","6","5","6","5","6","5","5","3","4","3","3","4","1","2","1","2","1","2","1","2","2","1","3","2","3","4","4","4","agree","9003.459999992629","","","","","","","","<p>Block 2</p><p>Press SPACE to continue.</p>","32","","",""
"image-keyboard-response","135","282662","0.0-13.0-0.0","e476sbj7cmaw40w","1","nathalie","24","08/1996","Single","English","French","Female","White or Caucasian","No","Undergraduate degree","Yes, Graduate studies","N/A","N/A","N/A","5","5","5","0","0","0","0.699999972","stim/H120.jpg","65","76","0.5000000200000001","1","3","4","","2","3","1","1","2","3","2","2","3","2","3","2","6","5","4","5","4","4","7","3","4","4","2","2","4","2","3","2","5","3","4","5","4","6","5","6","5","6","5","5","3","4","3","3","4","1","2","1","2","1","2","1","2","2","1","3","2","3","4","4","4","agree","null","","","","","","","","stim/H130.jpg","null","","",""
"html-keyboard-response","136","282801","0.0-13.0-1.0","e476sbj7cmaw40w","1","nathalie","24","08/1996","Single","English","French","Female","White or Caucasian","No","Undergraduate degree","Yes, Graduate studies","N/A","N/A","N/A","5","5","5","0","0","0","0.699999972","stim/H120.jpg","65","76","0.5000000200000001","1","3","4","","2","3","1","1","2","3","2","2","3","2","3","2","6","5","4","5","4","4","7","3","4","4","2","2","4","2","3","2","5","3","4","5","4","6","5","6","5","6","5","5","3","4","3","3","4","1","2","1","2","1","2","1","2","2","1","3","2","3","4","4","4","agree","138.09999999648426","","","","","","","","<div style=""font-size:60px;"">?</div>","65","1","2","0.5"
"image-keyboard-response","137","283806","0.0-13.0-0.1","e476sbj7cmaw40w","1","nathalie","24","08/1996","Single","English","French","Female","White or Caucasian","No","Undergraduate degree","Yes, Graduate studies","N/A","N/A","N/A","5","5","5","0","0","0","0.699999972","stim/H120.jpg","65","76","0.5000000200000001","1","3","4","","2","3","1","1","2","3","2","2","3","2","3","2","6","5","4","5","4","4","7","3","4","4","2","2","4","2","3","2","5","3","4","5","4","6","5","6","5","6","5","5","3","4","3","3","4","1","2","1","2","1","2","1","2","2","1","3","2","3","4","4","4","agree","null","","","","","","","","stim/H040.jpg","null","","",""
"html-keyboard-response","138","283886","0.0-13.0-1.1","e476sbj7cmaw40w","1","nathalie","24","08/1996","Single","English","French","Female","White or Caucasian","No","Undergraduate degree","Yes, Graduate studies","N/A","N/A","N/A","5","5","5","0","0","0","0.699999972","stim/H120.jpg","65","76","0.5000000200000001","1","3","4","","2","3","1","1","2","3","2","2","3","2","3","2","6","5","4","5","4","4","7","3","4","4","2","2","4","2","3","2","5","3","4","5","4","6","5","6","5","6","5","5","3","4","3","3","4","1","2","1","2","1","2","1","2","2","1","3","2","3","4","4","4","agree","78.47999999648891","","","","","","","","<div style=""font-size:60px;"">?</div>","65","2","2","0.5"
"image-keyboard-response","139","284890","0.0-13.0-0.2","e476sbj7cmaw40w","1","nathalie","24","08/1996","Single","English","French","Female","White or Caucasian","No","Undergraduate degree","Yes, Graduate studies","N/A","N/A","N/A","5","5","5","0","0","0","0.699999972","stim/H120.jpg","65","76","0.5000000200000001","1","3","4","","2","3","1","1","2","3","2","2","3","2","3","2","6","5","4","5","4","4","7","3","4","4","2","2","4","2","3","2","5","3","4","5","4","6","5","6","5","6","5","5","3","4","3","3","4","1","2","1","2","1","2","1","2","2","1","3","2","3","4","4","4","agree","null","","","","","","","","stim/H140.jpg","null","","",""
"html-keyboard-response","140","285095","0.0-13.0-1.2","e476sbj7cmaw40w","1","nathalie","24","08/1996","Single","English","French","Female","White or Caucasian","No","Undergraduate degree","Yes, Graduate studies","N/A","N/A","N/A","5","5","5","0","0","0","0.699999972","stim/H120.jpg","65","76","0.5000000200000001","1","3","4","","2","3","1","1","2","3","2","2","3","2","3","2","6","5","4","5","4","4","7","3","4","4","2","2","4","2","3","2","5","3","4","5","4","6","5","6","5","6","5","5","3","4","3","3","4","1","2","1","2","1","2","1","2","2","1","3","2","3","4","4","4","agree","203.04500000202097","","","","","","","","<div style=""font-size:60px;"">?</div>","65","3","2","0.5"
"image-keyboard-response","141","286100","0.0-13.0-0.3","e476sbj7cmaw40w","1","nathalie","24","08/1996","Single","English","French","Female","White or Caucasian","No","Undergraduate degree","Yes, Graduate studies","N/A","N/A","N/A","5","5","5","0","0","0","0.699999972","stim/H120.jpg","65","76","0.5000000200000001","1","3","4","","2","3","1","1","2","3","2","2","3","2","3","2","6","5","4","5","4","4","7","3","4","4","2","2","4","2","3","2","5","3","4","5","4","6","5","6","5","6","5","5","3","4","3","3","4","1","2","1","2","1","2","1","2","2","1","3","2","3","4","4","4","agree","null","","","","","","","","stim/T290.jpg","null","","",""
"html-keyboard-response","142","286217","0.0-13.0-1.3","e476sbj7cmaw40w","1","nathalie","24","08/1996","Single","English","French","Female","White or Caucasian","No","Undergraduate degree","Yes, Graduate studies","N/A","N/A","N/A","5","5","5","0","0","0","0.699999972","stim/H120.jpg","65","76","0.5000000200000001","1","3","4","","2","3","1","1","2","3","2","2","3","2","3","2","6","5","4","5","4","4","7","3","4","4","2","2","4","2","3","2","5","3","4","5","4","6","5","6","5","6","5","5","3","4","3","3","4","1","2","1","2","1","2","1","2","2","1","3","2","3","4","4","4","agree","116.19000000064261","","","","","","","","<div style=""font-size:60px;"">?</div>","65","4","2","0.5"
"image-keyboard-response","143","287224","0.0-13.0-0.4","e476sbj7cmaw40w","1","nathalie","24","08/1996","Single","English","French","Female","White or Caucasian","No","Undergraduate degree","Yes, Graduate studies","N/A","N/A","N/A","5","5","5","0","0","0","0.699999972","stim/H120.jpg","65","76","0.5000000200000001","1","3","4","","2","3","1","1","2","3","2","2","3","2","3","2","6","5","4","5","4","4","7","3","4","4","2","2","4","2","3","2","5","3","4","5","4","6","5","6","5","6","5","5","3","4","3","3","4","1","2","1","2","1","2","1","2","2","1","3","2","3","4","4","4","agree","null","","","","","","","","stim/T140.jpg","null","","",""
"html-keyboard-response","144","287269","0.0-13.0-1.4","e476sbj7cmaw40w","1","nathalie","24","08/1996","Single","English","French","Female","White or Caucasian","No","Undergraduate degree","Yes, Graduate studies","N/A","N/A","N/A","5","5","5","0","0","0","0.699999972","stim/H120.jpg","65","76","0.5000000200000001","1","3","4","","2","3","1","1","2","3","2","2","3","2","3","2","6","5","4","5","4","4","7","3","4","4","2","2","4","2","3","2","5","3","4","5","4","6","5","6","5","6","5","5","3","4","3","3","4","1","2","1","2","1","2","1","2","2","1","3","2","3","4","4","4","agree","44.10499999357853","","","","","","","","<div style=""font-size:60px;"">?</div>","65","5","2","0.5"
"image-keyboard-response","145","288278","0.0-13.0-0.5","e476sbj7cmaw40w","1","nathalie","24","08/1996","Single","English","French","Female","White or Caucasian","No","Undergraduate degree","Yes, Graduate studies","N/A","N/A","N/A","5","5","5","0","0","0","0.699999972","stim/H120.jpg","65","76","0.5000000200000001","1","3","4","","2","3","1","1","2","3","2","2","3","2","3","2","6","5","4","5","4","4","7","3","4","4","2","2","4","2","3","2","5","3","4","5","4","6","5","6","5","6","5","5","3","4","3","3","4","1","2","1","2","1","2","1","2","2","1","3","2","3","4","4","4","agree","null","","","","","","","","stim/T140.jpg","null","","",""
