"trial_type","trial_index","time_elapsed","internal_node_id","subject","condition","ID","age","dob","marital","natlang","olang","gender","ethnicity","mental_check","educ_l","educ_c","mental","mentdrug","mentpos","sesparent","sesstudent","sesladder","sescurrency","educ_hs","educ_ce","s1self","chosenbody","s1selfjudge","s2selfjudge","s2self","sspc_01","sspc_02","pas_01","pas_02","pas_03","pas_04","pas_05","pas_06","pas_07","pas_08","pas_09","pas_10","pas_11","pas_12","pas_13","pas_14","contact_01","contact_02","contact_03","contact_04","contact_05","contact_06","contact_07","contact_08","contact_09","idnd_01","idnd_02","idnd_03","idnd_04","idnd_05","idnd_06","idnd_07","idnd_08","catch_01","adig_01","adig_02","adig_03","plcs_01","plcs_02","plcs_03","plcs_04","plcs_05","plcs_06","plcs_07","plcs_08","plcs_09","plcs_10","plcs_11","plcs_12","catch_02","wwwp_01","wwwp_02","wwwp_03","wwwp_04","wwwp_05","wwwp_06","wwwp_07","wwwp_08","wwwp_09","lsns_fam_1","lsns_fam_2","lsns_fam_3","lsns_fri_1","lsns_fri_2","lsns_fri_3","debrief","rt","url","success","view_history","responses","question_order","final_value","start_value","stimulus","key_press","trial","block","freq"
"pavlovia","0","4","0.0-0.0","smf47cdyeys378j","0","1","21","09/1999","Single","English","French, Italian, Spanish","Female","White or Caucasian","No","CEGEP, non-university college, trade school or equivalent","Yes, Undergraduate studies","N/A","N/A","N/A","9","2","6","0","0","0","0.5","stim/N000.jpg","65","76","0.816666674","3","1","4","","2","2","3","3","2","2","3","3","0","1","1","3","1","5","1","5","5","1","0","0","0","5","1","2","4","4","0","3","5","5","3","1","4","0","5","2","1","3","0","5","2","3","4","5","6","1","5","5","5","5","6","4","5","6","5","3","2","3","4","2","3","agree","","","","","","","","","","","","",""
"external-html","1","1810849","0.0-1.0","smf47cdyeys378j","0","1","21","09/1999","Single","English","French, Italian, Spanish","Female","White or Caucasian","No","CEGEP, non-university college, trade school or equivalent","Yes, Undergraduate studies","N/A","N/A","N/A","9","2","6","0","0","0","0.5","stim/N000.jpg","65","76","0.816666674","3","1","4","","2","2","3","3","2","2","3","3","0","1","1","3","1","5","1","5","5","1","0","0","0","5","1","2","4","4","0","3","5","5","3","1","4","0","5","2","1","3","0","5","2","3","4","5","6","1","5","5","5","5","6","4","5","6","5","3","2","3","4","2","3","agree","1582980.2349999952","sub/html/consent.html","","","","","","","","","","",""
"fullscreen","2","1813885","0.0-2.0","smf47cdyeys378j","0","1","21","09/1999","Single","English","French, Italian, Spanish","Female","White or Caucasian","No","CEGEP, non-university college, trade school or equivalent","Yes, Undergraduate studies","N/A","N/A","N/A","9","2","6","0","0","0","0.5","stim/N000.jpg","65","76","0.816666674","3","1","4","","2","2","3","3","2","2","3","3","0","1","1","3","1","5","1","5","5","1","0","0","0","5","1","2","4","4","0","3","5","5","3","1","4","0","5","2","1","3","0","5","2","3","4","5","6","1","5","5","5","5","6","4","5","6","5","3","2","3","4","2","3","agree","","","true","","","","","","","","","",""
"instructions","3","1823675","0.0-3.0","smf47cdyeys378j","0","1","21","09/1999","Single","English","French, Italian, Spanish","Female","White or Caucasian","No","CEGEP, non-university college, trade school or equivalent","Yes, Undergraduate studies","N/A","N/A","N/A","9","2","6","0","0","0","0.5","stim/N000.jpg","65","76","0.816666674","3","1","4","","2","2","3","3","2","2","3","3","0","1","1","3","1","5","1","5","5","1","0","0","0","5","1","2","4","4","0","3","5","5","3","1","4","0","5","2","1","3","0","5","2","3","4","5","6","1","5","5","5","5","6","4","5","6","5","3","2","3","4","2","3","agree","9786.835000006016","","","[{""page_index"":0,""viewing_time"":2857.0100000067614},{""page_index"":1,""viewing_time"":6928.474999993574}]","","","","","","","","",""
"survey-text","4","1855873","0.0-4.0-0.0","smf47cdyeys378j","0","1","21","09/1999","Single","English","French, Italian, Spanish","Female","White or Caucasian","No","CEGEP, non-university college, trade school or equivalent","Yes, Undergraduate studies","N/A","N/A","N/A","9","2","6","0","0","0","0.5","stim/N000.jpg","65","76","0.816666674","3","1","4","","2","2","3","3","2","2","3","3","0","1","1","3","1","5","1","5","5","1","0","0","0","5","1","2","4","4","0","3","5","5","3","1","4","0","5","2","1","3","0","5","2","3","4","5","6","1","5","5","5","5","6","4","5","6","5","3","2","3","4","2","3","agree","32183.644999997457","","","","{""ID"":""1"",""age"":""21"",""dob"":""09/1999"",""marital"":""Single"",""natlang"":""English"",""olang"":""French, Italian, Spanish""}","","","","","","","",""
"survey-multi-choice","5","1877104","0.0-4.0-1.0","smf47cdyeys378j","0","1","21","09/1999","Single","English","French, Italian, Spanish","Female","White or Caucasian","No","CEGEP, non-university college, trade school or equivalent","Yes, Undergraduate studies","N/A","N/A","N/A","9","2","6","0","0","0","0.5","stim/N000.jpg","65","76","0.816666674","3","1","4","","2","2","3","3","2","2","3","3","0","1","1","3","1","5","1","5","5","1","0","0","0","5","1","2","4","4","0","3","5","5","3","1","4","0","5","2","1","3","0","5","2","3","4","5","6","1","5","5","5","5","6","4","5","6","5","3","2","3","4","2","3","agree","21226.060000000987","","","","{""gender"":""Female"",""ethnicity"":""White or Caucasian"",""mental_check"":""No"",""educ_l"":""CEGEP, non-university college, trade school or equivalent"",""educ_c"":""Yes, Undergraduate studies""}","[0,1,2,3,4]","","","","","","",""
"survey-text","6","1890556","0.0-4.0-2.0","smf47cdyeys378j","0","1","21","09/1999","Single","English","French, Italian, Spanish","Female","White or Caucasian","No","CEGEP, non-university college, trade school or equivalent","Yes, Undergraduate studies","N/A","N/A","N/A","9","2","6","0","0","0","0.5","stim/N000.jpg","65","76","0.816666674","3","1","4","","2","2","3","3","2","2","3","3","0","1","1","3","1","5","1","5","5","1","0","0","0","5","1","2","4","4","0","3","5","5","3","1","4","0","5","2","1","3","0","5","2","3","4","5","6","1","5","5","5","5","6","4","5","6","5","3","2","3","4","2","3","agree","13444.719999999506","","","","{""mental"":""N/A"",""mentdrug"":""N/A"",""mentpos"":""N/A""}","","","","","","","",""
"survey-likert","7","1910995","0.0-4.0-3.0","smf47cdyeys378j","0","1","21","09/1999","Single","English","French, Italian, Spanish","Female","White or Caucasian","No","CEGEP, non-university college, trade school or equivalent","Yes, Undergraduate studies","N/A","N/A","N/A","9","2","6","0","0","0","0.5","stim/N000.jpg","65","76","0.816666674","3","1","4","","2","2","3","3","2","2","3","3","0","1","1","3","1","5","1","5","5","1","0","0","0","5","1","2","4","4","0","3","5","5","3","1","4","0","5","2","1","3","0","5","2","3","4","5","6","1","5","5","5","5","6","4","5","6","5","3","2","3","4","2","3","agree","20433.445000002626","","","","{""sesparent"":9,""sesstudent"":2,""sesladder"":6,""sescurrency"":0}","[0,1,2,3]","","","","","","",""
"survey-likert","8","1921693","0.0-4.0-4.0","smf47cdyeys378j","0","1","21","09/1999","Single","English","French, Italian, Spanish","Female","White or Caucasian","No","CEGEP, non-university college, trade school or equivalent","Yes, Undergraduate studies","N/A","N/A","N/A","9","2","6","0","0","0","0.5","stim/N000.jpg","65","76","0.816666674","3","1","4","","2","2","3","3","2","2","3","3","0","1","1","3","1","5","1","5","5","1","0","0","0","5","1","2","4","4","0","3","5","5","3","1","4","0","5","2","1","3","0","5","2","3","4","5","6","1","5","5","5","5","6","4","5","6","5","3","2","3","4","2","3","agree","10694.790000008652","","","","{""educ_hs"":0,""educ_ce"":0}","[0,1]","","","","","","",""
"reconstruction","9","1936132","0.0-5.0","smf47cdyeys378j","0","1","21","09/1999","Single","English","French, Italian, Spanish","Female","White or Caucasian","No","CEGEP, non-university college, trade school or equivalent","Yes, Undergraduate studies","N/A","N/A","N/A","9","2","6","0","0","0","0.5","stim/N000.jpg","65","76","0.816666674","3","1","4","","2","2","3","3","2","2","3","3","0","1","1","3","1","5","1","5","5","1","0","0","0","5","1","2","4","4","0","3","5","5","3","1","4","0","5","2","1","3","0","5","2","3","4","5","6","1","5","5","5","5","6","4","5","6","5","3","2","3","4","2","3","agree","14435.135000006994","","","","","","0.5","0.5","","","","",""
"image-keyboard-response","10","1949078","0.0-6.0","smf47cdyeys378j","0","1","21","09/1999","Single","English","French, Italian, Spanish","Female","White or Caucasian","No","CEGEP, non-university college, trade school or equivalent","Yes, Undergraduate studies","N/A","N/A","N/A","9","2","6","0","0","0","0.5","stim/N000.jpg","65","76","0.816666674","3","1","4","","2","2","3","3","2","2","3","3","0","1","1","3","1","5","1","5","5","1","0","0","0","5","1","2","4","4","0","3","5","5","3","1","4","0","5","2","1","3","0","5","2","3","4","5","6","1","5","5","5","5","6","4","5","6","5","3","2","3","4","2","3","agree","12942.749999987427","","","","","","","","stim/N000.jpg","65","","",""
"instructions","11","2015441","0.0-7.0","smf47cdyeys378j","0","1","21","09/1999","Single","English","French, Italian, Spanish","Female","White or Caucasian","No","CEGEP, non-university college, trade school or equivalent","Yes, Undergraduate studies","N/A","N/A","N/A","9","2","6","0","0","0","0.5","stim/N000.jpg","65","76","0.816666674","3","1","4","","2","2","3","3","2","2","3","3","0","1","1","3","1","5","1","5","5","1","0","0","0","5","1","2","4","4","0","3","5","5","3","1","4","0","5","2","1","3","0","5","2","3","4","5","6","1","5","5","5","5","6","4","5","6","5","3","2","3","4","2","3","agree","66360.6199999922","","","[{""page_index"":0,""viewing_time"":3145.709999996936},{""page_index"":1,""viewing_time"":9831.559999991674},{""page_index"":2,""viewing_time"":4647.4350000061095},{""page_index"":3,""viewing_time"":7388.1350000011735},{""page_index"":4,""viewing_time"":8270.244999992196},{""page_index"":5,""viewing_time"":17162.110000004992},{""page_index"":6,""viewing_time"":6903.5850000071805},{""page_index"":5,""viewing_time"":551.6749999951571},{""page_index"":4,""viewing_time"":1727.8249999943655},{""page_index"":3,""viewing_time"":802.8400000040419},{""page_index"":2,""viewing_time"":2790.290000004461},{""page_index"":3,""viewing_time"":551.3249999929685},{""page_index"":4,""viewing_time"":462.4350000086706},{""page_index"":5,""viewing_time"":1184.309999997029},{""page_index"":6,""viewing_time"":940.8049999908544}]","","","","","","","","",""
"image-keyboard-response","12","2015943","0.0-8.0-0.0","smf47cdyeys378j","0","1","21","09/1999","Single","English","French, Italian, Spanish","Female","White or Caucasian","No","CEGEP, non-university college, trade school or equivalent","Yes, Undergraduate studies","N/A","N/A","N/A","9","2","6","0","0","0","0.5","stim/N000.jpg","65","76","0.816666674","3","1","4","","2","2","3","3","2","2","3","3","0","1","1","3","1","5","1","5","5","1","0","0","0","5","1","2","4","4","0","3","5","5","3","1","4","0","5","2","1","3","0","5","2","3","4","5","6","1","5","5","5","5","6","4","5","6","5","3","2","3","4","2","3","agree","null","","","","","","","","stim/H260.jpg","null","","",""
"html-keyboard-response","13","2017260","0.0-8.0-1.0","smf47cdyeys378j","0","1","21","09/1999","Single","English","French, Italian, Spanish","Female","White or Caucasian","No","CEGEP, non-university college, trade school or equivalent","Yes, Undergraduate studies","N/A","N/A","N/A","9","2","6","0","0","0","0.5","stim/N000.jpg","65","76","0.816666674","3","1","4","","2","2","3","3","2","2","3","3","0","1","1","3","1","5","1","5","5","1","0","0","0","5","1","2","4","4","0","3","5","5","3","1","4","0","5","2","1","3","0","5","2","3","4","5","6","1","5","5","5","5","6","4","5","6","5","3","2","3","4","2","3","agree","1315.4750000103377","","","","","","","","<div style=""font-size:60px;"">?</div>","65","1","Practice","0.5"
"image-keyboard-response","14","2018265","0.0-8.0-0.1","smf47cdyeys378j","0","1","21","09/1999","Single","English","French, Italian, Spanish","Female","White or Caucasian","No","CEGEP, non-university college, trade school or equivalent","Yes, Undergraduate studies","N/A","N/A","N/A","9","2","6","0","0","0","0.5","stim/N000.jpg","65","76","0.816666674","3","1","4","","2","2","3","3","2","2","3","3","0","1","1","3","1","5","1","5","5","1","0","0","0","5","1","2","4","4","0","3","5","5","3","1","4","0","5","2","1","3","0","5","2","3","4","5","6","1","5","5","5","5","6","4","5","6","5","3","2","3","4","2","3","agree","null","","","","","","","","stim/H090.jpg","null","","",""
"html-keyboard-response","15","2019158","0.0-8.0-1.1","smf47cdyeys378j","0","1","21","09/1999","Single","English","French, Italian, Spanish","Female","White or Caucasian","No","CEGEP, non-university college, trade school or equivalent","Yes, Undergraduate studies","N/A","N/A","N/A","9","2","6","0","0","0","0.5","stim/N000.jpg","65","76","0.816666674","3","1","4","","2","2","3","3","2","2","3","3","0","1","1","3","1","5","1","5","5","1","0","0","0","5","1","2","4","4","0","3","5","5","3","1","4","0","5","2","1","3","0","5","2","3","4","5","6","1","5","5","5","5","6","4","5","6","5","3","2","3","4","2","3","agree","892.1450000051409","","","","","","","","<div style=""font-size:60px;"">?</div>","65","2","Practice","0.5"
"image-keyboard-response","16","2020167","0.0-8.0-0.2","smf47cdyeys378j","0","1","21","09/1999","Single","English","French, Italian, Spanish","Female","White or Caucasian","No","CEGEP, non-university college, trade school or equivalent","Yes, Undergraduate studies","N/A","N/A","N/A","9","2","6","0","0","0","0.5","stim/N000.jpg","65","76","0.816666674","3","1","4","","2","2","3","3","2","2","3","3","0","1","1","3","1","5","1","5","5","1","0","0","0","5","1","2","4","4","0","3","5","5","3","1","4","0","5","2","1","3","0","5","2","3","4","5","6","1","5","5","5","5","6","4","5","6","5","3","2","3","4","2","3","agree","null","","","","","","","","stim/H290.jpg","null","","",""
"html-keyboard-response","17","2020590","0.0-8.0-1.2","smf47cdyeys378j","0","1","21","09/1999","Single","English","French, Italian, Spanish","Female","White or Caucasian","No","CEGEP, non-university college, trade school or equivalent","Yes, Undergraduate studies","N/A","N/A","N/A","9","2","6","0","0","0","0.5","stim/N000.jpg","65","76","0.816666674","3","1","4","","2","2","3","3","2","2","3","3","0","1","1","3","1","5","1","5","5","1","0","0","0","5","1","2","4","4","0","3","5","5","3","1","4","0","5","2","1","3","0","5","2","3","4","5","6","1","5","5","5","5","6","4","5","6","5","3","2","3","4","2","3","agree","421.6949999970384","","","","","","","","<div style=""font-size:60px;"">?</div>","65","3","Practice","0.5"
"image-keyboard-response","18","2021593","0.0-8.0-0.3","smf47cdyeys378j","0","1","21","09/1999","Single","English","French, Italian, Spanish","Female","White or Caucasian","No","CEGEP, non-university college, trade school or equivalent","Yes, Undergraduate studies","N/A","N/A","N/A","9","2","6","0","0","0","0.5","stim/N000.jpg","65","76","0.816666674","3","1","4","","2","2","3","3","2","2","3","3","0","1","1","3","1","5","1","5","5","1","0","0","0","5","1","2","4","4","0","3","5","5","3","1","4","0","5","2","1","3","0","5","2","3","4","5","6","1","5","5","5","5","6","4","5","6","5","3","2","3","4","2","3","agree","null","","","","","","","","stim/T210.jpg","null","","",""
"html-keyboard-response","19","2022084","0.0-8.0-1.3","smf47cdyeys378j","0","1","21","09/1999","Single","English","French, Italian, Spanish","Female","White or Caucasian","No","CEGEP, non-university college, trade school or equivalent","Yes, Undergraduate studies","N/A","N/A","N/A","9","2","6","0","0","0","0.5","stim/N000.jpg","65","76","0.816666674","3","1","4","","2","2","3","3","2","2","3","3","0","1","1","3","1","5","1","5","5","1","0","0","0","5","1","2","4","4","0","3","5","5","3","1","4","0","5","2","1","3","0","5","2","3","4","5","6","1","5","5","5","5","6","4","5","6","5","3","2","3","4","2","3","agree","488.685000004014","","","","","","","","<div style=""font-size:60px;"">?</div>","76","4","Practice","0.5"
"image-keyboard-response","20","2023092","0.0-8.0-0.4","smf47cdyeys378j","0","1","21","09/1999","Single","English","French, Italian, Spanish","Female","White or Caucasian","No","CEGEP, non-university college, trade school or equivalent","Yes, Undergraduate studies","N/A","N/A","N/A","9","2","6","0","0","0","0.5","stim/N000.jpg","65","76","0.816666674","3","1","4","","2","2","3","3","2","2","3","3","0","1","1","3","1","5","1","5","5","1","0","0","0","5","1","2","4","4","0","3","5","5","3","1","4","0","5","2","1","3","0","5","2","3","4","5","6","1","5","5","5","5","6","4","5","6","5","3","2","3","4","2","3","agree","null","","","","","","","","stim/H200.jpg","null","","",""
"html-keyboard-response","21","2023580","0.0-8.0-1.4","smf47cdyeys378j","0","1","21","09/1999","Single","English","French, Italian, Spanish","Female","White or Caucasian","No","CEGEP, non-university college, trade school or equivalent","Yes, Undergraduate studies","N/A","N/A","N/A","9","2","6","0","0","0","0.5","stim/N000.jpg","65","76","0.816666674","3","1","4","","2","2","3","3","2","2","3","3","0","1","1","3","1","5","1","5","5","1","0","0","0","5","1","2","4","4","0","3","5","5","3","1","4","0","5","2","1","3","0","5","2","3","4","5","6","1","5","5","5","5","6","4","5","6","5","3","2","3","4","2","3","agree","486.78500000108033","","","","","","","","<div style=""font-size:60px;"">?</div>","65","5","Practice","0.5"
"image-keyboard-response","22","2024591","0.0-8.0-0.5","smf47cdyeys378j","0","1","21","09/1999","Single","English","French, Italian, Spanish","Female","White or Caucasian","No","CEGEP, non-university college, trade school or equivalent","Yes, Undergraduate studies","N/A","N/A","N/A","9","2","6","0","0","0","0.5","stim/N000.jpg","65","76","0.816666674","3","1","4","","2","2","3","3","2","2","3","3","0","1","1","3","1","5","1","5","5","1","0","0","0","5","1","2","4","4","0","3","5","5","3","1","4","0","5","2","1","3","0","5","2","3","4","5","6","1","5","5","5","5","6","4","5","6","5","3","2","3","4","2","3","agree","null","","","","","","","","stim/T200.jpg","null","","",""
"html-keyboard-response","23","2025332","0.0-8.0-1.5","smf47cdyeys378j","0","1","21","09/1999","Single","English","French, Italian, Spanish","Female","White or Caucasian","No","CEGEP, non-university college, trade school or equivalent","Yes, Undergraduate studies","N/A","N/A","N/A","9","2","6","0","0","0","0.5","stim/N000.jpg","65","76","0.816666674","3","1","4","","2","2","3","3","2","2","3","3","0","1","1","3","1","5","1","5","5","1","0","0","0","5","1","2","4","4","0","3","5","5","3","1","4","0","5","2","1","3","0","5","2","3","4","5","6","1","5","5","5","5","6","4","5","6","5","3","2","3","4","2","3","agree","739.6149999988265","","","","","","","","<div style=""font-size:60px;"">?</div>","76","6","Practice","0.5"
"image-keyboard-response","24","2026336","0.0-8.0-0.6","smf47cdyeys378j","0","1","21","09/1999","Single","English","French, Italian, Spanish","Female","White or Caucasian","No","CEGEP, non-university college, trade school or equivalent","Yes, Undergraduate studies","N/A","N/A","N/A","9","2","6","0","0","0","0.5","stim/N000.jpg","65","76","0.816666674","3","1","4","","2","2","3","3","2","2","3","3","0","1","1","3","1","5","1","5","5","1","0","0","0","5","1","2","4","4","0","3","5","5","3","1","4","0","5","2","1","3","0","5","2","3","4","5","6","1","5","5","5","5","6","4","5","6","5","3","2","3","4","2","3","agree","null","","","","","","","","stim/T150.jpg","null","","",""
"html-keyboard-response","25","2026967","0.0-8.0-1.6","smf47cdyeys378j","0","1","21","09/1999","Single","English","French, Italian, Spanish","Female","White or Caucasian","No","CEGEP, non-university college, trade school or equivalent","Yes, Undergraduate studies","N/A","N/A","N/A","9","2","6","0","0","0","0.5","stim/N000.jpg","65","76","0.816666674","3","1","4","","2","2","3","3","2","2","3","3","0","1","1","3","1","5","1","5","5","1","0","0","0","5","1","2","4","4","0","3","5","5","3","1","4","0","5","2","1","3","0","5","2","3","4","5","6","1","5","5","5","5","6","4","5","6","5","3","2","3","4","2","3","agree","630.1000000094064","","","","","","","","<div style=""font-size:60px;"">?</div>","76","7","Practice","0.5"
"image-keyboard-response","26","2027978","0.0-8.0-0.7","smf47cdyeys378j","0","1","21","09/1999","Single","English","French, Italian, Spanish","Female","White or Caucasian","No","CEGEP, non-university college, trade school or equivalent","Yes, Undergraduate studies","N/A","N/A","N/A","9","2","6","0","0","0","0.5","stim/N000.jpg","65","76","0.816666674","3","1","4","","2","2","3","3","2","2","3","3","0","1","1","3","1","5","1","5","5","1","0","0","0","5","1","2","4","4","0","3","5","5","3","1","4","0","5","2","1","3","0","5","2","3","4","5","6","1","5","5","5","5","6","4","5","6","5","3","2","3","4","2","3","agree","null","","","","","","","","stim/T220.jpg","null","","",""
"html-keyboard-response","27","2028900","0.0-8.0-1.7","smf47cdyeys378j","0","1","21","09/1999","Single","English","French, Italian, Spanish","Female","White or Caucasian","No","CEGEP, non-university college, trade school or equivalent","Yes, Undergraduate studies","N/A","N/A","N/A","9","2","6","0","0","0","0.5","stim/N000.jpg","65","76","0.816666674","3","1","4","","2","2","3","3","2","2","3","3","0","1","1","3","1","5","1","5","5","1","0","0","0","5","1","2","4","4","0","3","5","5","3","1","4","0","5","2","1","3","0","5","2","3","4","5","6","1","5","5","5","5","6","4","5","6","5","3","2","3","4","2","3","agree","921.1400000057183","","","","","","","","<div style=""font-size:60px;"">?</div>","76","8","Practice","0.5"
"image-keyboard-response","28","2029906","0.0-8.0-0.8","smf47cdyeys378j","0","1","21","09/1999","Single","English","French, Italian, Spanish","Female","White or Caucasian","No","CEGEP, non-university college, trade school or equivalent","Yes, Undergraduate studies","N/A","N/A","N/A","9","2","6","0","0","0","0.5","stim/N000.jpg","65","76","0.816666674","3","1","4","","2","2","3","3","2","2","3","3","0","1","1","3","1","5","1","5","5","1","0","0","0","5","1","2","4","4","0","3","5","5","3","1","4","0","5","2","1","3","0","5","2","3","4","5","6","1","5","5","5","5","6","4","5","6","5","3","2","3","4","2","3","agree","null","","","","","","","","stim/T080.jpg","null","","",""
"html-keyboard-response","29","2030430","0.0-8.0-1.8","smf47cdyeys378j","0","1","21","09/1999","Single","English","French, Italian, Spanish","Female","White or Caucasian","No","CEGEP, non-university college, trade school or equivalent","Yes, Undergraduate studies","N/A","N/A","N/A","9","2","6","0","0","0","0.5","stim/N000.jpg","65","76","0.816666674","3","1","4","","2","2","3","3","2","2","3","3","0","1","1","3","1","5","1","5","5","1","0","0","0","5","1","2","4","4","0","3","5","5","3","1","4","0","5","2","1","3","0","5","2","3","4","5","6","1","5","5","5","5","6","4","5","6","5","3","2","3","4","2","3","agree","522.5399999909569","","","","","","","","<div style=""font-size:60px;"">?</div>","76","9","Practice","0.5"
"image-keyboard-response","30","2031434","0.0-8.0-0.9","smf47cdyeys378j","0","1","21","09/1999","Single","English","French, Italian, Spanish","Female","White or Caucasian","No","CEGEP, non-university college, trade school or equivalent","Yes, Undergraduate studies","N/A","N/A","N/A","9","2","6","0","0","0","0.5","stim/N000.jpg","65","76","0.816666674","3","1","4","","2","2","3","3","2","2","3","3","0","1","1","3","1","5","1","5","5","1","0","0","0","5","1","2","4","4","0","3","5","5","3","1","4","0","5","2","1","3","0","5","2","3","4","5","6","1","5","5","5","5","6","4","5","6","5","3","2","3","4","2","3","agree","null","","","","","","","","stim/H110.jpg","null","","",""
"html-keyboard-response","31","2031883","0.0-8.0-1.9","smf47cdyeys378j","0","1","21","09/1999","Single","English","French, Italian, Spanish","Female","White or Caucasian","No","CEGEP, non-university college, trade school or equivalent","Yes, Undergraduate studies","N/A","N/A","N/A","9","2","6","0","0","0","0.5","stim/N000.jpg","65","76","0.816666674","3","1","4","","2","2","3","3","2","2","3","3","0","1","1","3","1","5","1","5","5","1","0","0","0","5","1","2","4","4","0","3","5","5","3","1","4","0","5","2","1","3","0","5","2","3","4","5","6","1","5","5","5","5","6","4","5","6","5","3","2","3","4","2","3","agree","447.7850000113249","","","","","","","","<div style=""font-size:60px;"">?</div>","65","10","Practice","0.5"
"html-keyboard-response","32","2041004","0.0-9.0","smf47cdyeys378j","0","1","21","09/1999","Single","English","French, Italian, Spanish","Female","White or Caucasian","No","CEGEP, non-university college, trade school or equivalent","Yes, Undergraduate studies","N/A","N/A","N/A","9","2","6","0","0","0","0.5","stim/N000.jpg","65","76","0.816666674","3","1","4","","2","2","3","3","2","2","3","3","0","1","1","3","1","5","1","5","5","1","0","0","0","5","1","2","4","4","0","3","5","5","3","1","4","0","5","2","1","3","0","5","2","3","4","5","6","1","5","5","5","5","6","4","5","6","5","3","2","3","4","2","3","agree","8619.680000003427","","","","","","","","<p>You have now completed the practice series.</p><p>If you have any questions, please reload this page and read the instructions again.</p><p>Otherwise, you're ready to begin the study!</p><p><strong>REMEMBER</strong>: Press <b>L </b>when you think the face is of Middle-Eastern geographic origin, and <b>A </b>if not. </p><p>Press SPACE when you're ready to start!</p>","32","","",""
"html-keyboard-response","33","2042690","0.0-10.0","smf47cdyeys378j","0","1","21","09/1999","Single","English","French, Italian, Spanish","Female","White or Caucasian","No","CEGEP, non-university college, trade school or equivalent","Yes, Undergraduate studies","N/A","N/A","N/A","9","2","6","0","0","0","0.5","stim/N000.jpg","65","76","0.816666674","3","1","4","","2","2","3","3","2","2","3","3","0","1","1","3","1","5","1","5","5","1","0","0","0","5","1","2","4","4","0","3","5","5","3","1","4","0","5","2","1","3","0","5","2","3","4","5","6","1","5","5","5","5","6","4","5","6","5","3","2","3","4","2","3","agree","1180.7200000039302","","","","","","","","<p>Block 1</p><p>Press SPACE to continue.</p>","32","","",""
"image-keyboard-response","34","2044195","0.0-11.0-0.0","smf47cdyeys378j","0","1","21","09/1999","Single","English","French, Italian, Spanish","Female","White or Caucasian","No","CEGEP, non-university college, trade school or equivalent","Yes, Undergraduate studies","N/A","N/A","N/A","9","2","6","0","0","0","0.5","stim/N000.jpg","65","76","0.816666674","3","1","4","","2","2","3","3","2","2","3","3","0","1","1","3","1","5","1","5","5","1","0","0","0","5","1","2","4","4","0","3","5","5","3","1","4","0","5","2","1","3","0","5","2","3","4","5","6","1","5","5","5","5","6","4","5","6","5","3","2","3","4","2","3","agree","null","","","","","","","","stim/H170.jpg","null","","",""
"html-keyboard-response","35","2044797","0.0-11.0-1.0","smf47cdyeys378j","0","1","21","09/1999","Single","English","French, Italian, Spanish","Female","White or Caucasian","No","CEGEP, non-university college, trade school or equivalent","Yes, Undergraduate studies","N/A","N/A","N/A","9","2","6","0","0","0","0.5","stim/N000.jpg","65","76","0.816666674","3","1","4","","2","2","3","3","2","2","3","3","0","1","1","3","1","5","1","5","5","1","0","0","0","5","1","2","4","4","0","3","5","5","3","1","4","0","5","2","1","3","0","5","2","3","4","5","6","1","5","5","5","5","6","4","5","6","5","3","2","3","4","2","3","agree","600.8500000024214","","","","","","","","<div style=""font-size:60px;"">?</div>","65","1","1","0.5"
"image-keyboard-response","36","2045804","0.0-11.0-0.1","smf47cdyeys378j","0","1","21","09/1999","Single","English","French, Italian, Spanish","Female","White or Caucasian","No","CEGEP, non-university college, trade school or equivalent","Yes, Undergraduate studies","N/A","N/A","N/A","9","2","6","0","0","0","0.5","stim/N000.jpg","65","76","0.816666674","3","1","4","","2","2","3","3","2","2","3","3","0","1","1","3","1","5","1","5","5","1","0","0","0","5","1","2","4","4","0","3","5","5","3","1","4","0","5","2","1","3","0","5","2","3","4","5","6","1","5","5","5","5","6","4","5","6","5","3","2","3","4","2","3","agree","null","","","","","","","","stim/H190.jpg","null","","",""
"html-keyboard-response","37","2046221","0.0-11.0-1.1","smf47cdyeys378j","0","1","21","09/1999","Single","English","French, Italian, Spanish","Female","White or Caucasian","No","CEGEP, non-university college, trade school or equivalent","Yes, Undergraduate studies","N/A","N/A","N/A","9","2","6","0","0","0","0.5","stim/N000.jpg","65","76","0.816666674","3","1","4","","2","2","3","3","2","2","3","3","0","1","1","3","1","5","1","5","5","1","0","0","0","5","1","2","4","4","0","3","5","5","3","1","4","0","5","2","1","3","0","5","2","3","4","5","6","1","5","5","5","5","6","4","5","6","5","3","2","3","4","2","3","agree","416.64000001037493","","","","","","","","<div style=""font-size:60px;"">?</div>","65","2","1","0.5"
"image-keyboard-response","38","2047229","0.0-11.0-0.2","smf47cdyeys378j","0","1","21","09/1999","Single","English","French, Italian, Spanish","Female","White or Caucasian","No","CEGEP, non-university college, trade school or equivalent","Yes, Undergraduate studies","N/A","N/A","N/A","9","2","6","0","0","0","0.5","stim/N000.jpg","65","76","0.816666674","3","1","4","","2","2","3","3","2","2","3","3","0","1","1","3","1","5","1","5","5","1","0","0","0","5","1","2","4","4","0","3","5","5","3","1","4","0","5","2","1","3","0","5","2","3","4","5","6","1","5","5","5","5","6","4","5","6","5","3","2","3","4","2","3","agree","null","","","","","","","","stim/H220.jpg","null","","",""
"html-keyboard-response","39","2047623","0.0-11.0-1.2","smf47cdyeys378j","0","1","21","09/1999","Single","English","French, Italian, Spanish","Female","White or Caucasian","No","CEGEP, non-university college, trade school or equivalent","Yes, Undergraduate studies","N/A","N/A","N/A","9","2","6","0","0","0","0.5","stim/N000.jpg","65","76","0.816666674","3","1","4","","2","2","3","3","2","2","3","3","0","1","1","3","1","5","1","5","5","1","0","0","0","5","1","2","4","4","0","3","5","5","3","1","4","0","5","2","1","3","0","5","2","3","4","5","6","1","5","5","5","5","6","4","5","6","5","3","2","3","4","2","3","agree","392.8499999893829","","","","","","","","<div style=""font-size:60px;"">?</div>","65","3","1","0.5"
"image-keyboard-response","40","2048634","0.0-11.0-0.3","smf47cdyeys378j","0","1","21","09/1999","Single","English","French, Italian, Spanish","Female","White or Caucasian","No","CEGEP, non-university college, trade school or equivalent","Yes, Undergraduate studies","N/A","N/A","N/A","9","2","6","0","0","0","0.5","stim/N000.jpg","65","76","0.816666674","3","1","4","","2","2","3","3","2","2","3","3","0","1","1","3","1","5","1","5","5","1","0","0","0","5","1","2","4","4","0","3","5","5","3","1","4","0","5","2","1","3","0","5","2","3","4","5","6","1","5","5","5","5","6","4","5","6","5","3","2","3","4","2","3","agree","null","","","","","","","","stim/H050.jpg","null","","",""
"html-keyboard-response","41","2049245","0.0-11.0-1.3","smf47cdyeys378j","0","1","21","09/1999","Single","English","French, Italian, Spanish","Female","White or Caucasian","No","CEGEP, non-university college, trade school or equivalent","Yes, Undergraduate studies","N/A","N/A","N/A","9","2","6","0","0","0","0.5","stim/N000.jpg","65","76","0.816666674","3","1","4","","2","2","3","3","2","2","3","3","0","1","1","3","1","5","1","5","5","1","0","0","0","5","1","2","4","4","0","3","5","5","3","1","4","0","5","2","1","3","0","5","2","3","4","5","6","1","5","5","5","5","6","4","5","6","5","3","2","3","4","2","3","agree","610.1800000031944","","","","","","","","<div style=""font-size:60px;"">?</div>","65","4","1","0.5"
"image-keyboard-response","42","2050252","0.0-11.0-0.4","smf47cdyeys378j","0","1","21","09/1999","Single","English","French, Italian, Spanish","Female","White or Caucasian","No","CEGEP, non-university college, trade school or equivalent","Yes, Undergraduate studies","N/A","N/A","N/A","9","2","6","0","0","0","0.5","stim/N000.jpg","65","76","0.816666674","3","1","4","","2","2","3","3","2","2","3","3","0","1","1","3","1","5","1","5","5","1","0","0","0","5","1","2","4","4","0","3","5","5","3","1","4","0","5","2","1","3","0","5","2","3","4","5","6","1","5","5","5","5","6","4","5","6","5","3","2","3","4","2","3","agree","null","","","","","","","","stim/T140.jpg","null","","",""
"html-keyboard-response","43","2050702","0.0-11.0-1.4","smf47cdyeys378j","0","1","21","09/1999","Single","English","French, Italian, Spanish","Female","White or Caucasian","No","CEGEP, non-university college, trade school or equivalent","Yes, Undergraduate studies","N/A","N/A","N/A","9","2","6","0","0","0","0.5","stim/N000.jpg","65","76","0.816666674","3","1","4","","2","2","3","3","2","2","3","3","0","1","1","3","1","5","1","5","5","1","0","0","0","5","1","2","4","4","0","3","5","5","3","1","4","0","5","2","1","3","0","5","2","3","4","5","6","1","5","5","5","5","6","4","5","6","5","3","2","3","4","2","3","agree","448.8300000084564","","","","","","","","<div style=""font-size:60px;"">?</div>","76","5","1","0.5"
"image-keyboard-response","44","2051709","0.0-11.0-0.5","smf47cdyeys378j","0","1","21","09/1999","Single","English","French, Italian, Spanish","Female","White or Caucasian","No","CEGEP, non-university college, trade school or equivalent","Yes, Undergraduate studies","N/A","N/A","N/A","9","2","6","0","0","0","0.5","stim/N000.jpg","65","76","0.816666674","3","1","4","","2","2","3","3","2","2","3","3","0","1","1","3","1","5","1","5","5","1","0","0","0","5","1","2","4","4","0","3","5","5","3","1","4","0","5","2","1","3","0","5","2","3","4","5","6","1","5","5","5","5","6","4","5","6","5","3","2","3","4","2","3","agree","null","","","","","","","","stim/T030.jpg","null","","",""
"html-keyboard-response","45","2052175","0.0-11.0-1.5","smf47cdyeys378j","0","1","21","09/1999","Single","English","French, Italian, Spanish","Female","White or Caucasian","No","CEGEP, non-university college, trade school or equivalent","Yes, Undergraduate studies","N/A","N/A","N/A","9","2","6","0","0","0","0.5","stim/N000.jpg","65","76","0.816666674","3","1","4","","2","2","3","3","2","2","3","3","0","1","1","3","1","5","1","5","5","1","0","0","0","5","1","2","4","4","0","3","5","5","3","1","4","0","5","2","1","3","0","5","2","3","4","5","6","1","5","5","5","5","6","4","5","6","5","3","2","3","4","2","3","agree","464.3000000070315","","","","","","","","<div style=""font-size:60px;"">?</div>","76","6","1","0.5"
"image-keyboard-response","46","2053185","0.0-11.0-0.6","smf47cdyeys378j","0","1","21","09/1999","Single","English","French, Italian, Spanish","Female","White or Caucasian","No","CEGEP, non-university college, trade school or equivalent","Yes, Undergraduate studies","N/A","N/A","N/A","9","2","6","0","0","0","0.5","stim/N000.jpg","65","76","0.816666674","3","1","4","","2","2","3","3","2","2","3","3","0","1","1","3","1","5","1","5","5","1","0","0","0","5","1","2","4","4","0","3","5","5","3","1","4","0","5","2","1","3","0","5","2","3","4","5","6","1","5","5","5","5","6","4","5","6","5","3","2","3","4","2","3","agree","null","","","","","","","","stim/T140.jpg","null","","",""
"html-keyboard-response","47","2053612","0.0-11.0-1.6","smf47cdyeys378j","0","1","21","09/1999","Single","English","French, Italian, Spanish","Female","White or Caucasian","No","CEGEP, non-university college, trade school or equivalent","Yes, Undergraduate studies","N/A","N/A","N/A","9","2","6","0","0","0","0.5","stim/N000.jpg","65","76","0.816666674","3","1","4","","2","2","3","3","2","2","3","3","0","1","1","3","1","5","1","5","5","1","0","0","0","5","1","2","4","4","0","3","5","5","3","1","4","0","5","2","1","3","0","5","2","3","4","5","6","1","5","5","5","5","6","4","5","6","5","3","2","3","4","2","3","agree","426.300000006333","","","","","","","","<div style=""font-size:60px;"">?</div>","76","7","1","0.5"
"image-keyboard-response","48","2054623","0.0-11.0-0.7","smf47cdyeys378j","0","1","21","09/1999","Single","English","French, Italian, Spanish","Female","White or Caucasian","No","CEGEP, non-university college, trade school or equivalent","Yes, Undergraduate studies","N/A","N/A","N/A","9","2","6","0","0","0","0.5","stim/N000.jpg","65","76","0.816666674","3","1","4","","2","2","3","3","2","2","3","3","0","1","1","3","1","5","1","5","5","1","0","0","0","5","1","2","4","4","0","3","5","5","3","1","4","0","5","2","1","3","0","5","2","3","4","5","6","1","5","5","5","5","6","4","5","6","5","3","2","3","4","2","3","agree","null","","","","","","","","stim/H080.jpg","null","","",""
"html-keyboard-response","49","2055116","0.0-11.0-1.7","smf47cdyeys378j","0","1","21","09/1999","Single","English","French, Italian, Spanish","Female","White or Caucasian","No","CEGEP, non-university college, trade school or equivalent","Yes, Undergraduate studies","N/A","N/A","N/A","9","2","6","0","0","0","0.5","stim/N000.jpg","65","76","0.816666674","3","1","4","","2","2","3","3","2","2","3","3","0","1","1","3","1","5","1","5","5","1","0","0","0","5","1","2","4","4","0","3","5","5","3","1","4","0","5","2","1","3","0","5","2","3","4","5","6","1","5","5","5","5","6","4","5","6","5","3","2","3","4","2","3","agree","492.0949999941513","","","","","","","","<div style=""font-size:60px;"">?</div>","65","8","1","0.5"
"image-keyboard-response","50","2056127","0.0-11.0-0.8","smf47cdyeys378j","0","1","21","09/1999","Single","English","French, Italian, Spanish","Female","White or Caucasian","No","CEGEP, non-university college, trade school or equivalent","Yes, Undergraduate studies","N/A","N/A","N/A","9","2","6","0","0","0","0.5","stim/N000.jpg","65","76","0.816666674","3","1","4","","2","2","3","3","2","2","3","3","0","1","1","3","1","5","1","5","5","1","0","0","0","5","1","2","4","4","0","3","5","5","3","1","4","0","5","2","1","3","0","5","2","3","4","5","6","1","5","5","5","5","6","4","5","6","5","3","2","3","4","2","3","agree","null","","","","","","","","stim/T150.jpg","null","","",""
"html-keyboard-response","51","2056487","0.0-11.0-1.8","smf47cdyeys378j","0","1","21","09/1999","Single","English","French, Italian, Spanish","Female","White or Caucasian","No","CEGEP, non-university college, trade school or equivalent","Yes, Undergraduate studies","N/A","N/A","N/A","9","2","6","0","0","0","0.5","stim/N000.jpg","65","76","0.816666674","3","1","4","","2","2","3","3","2","2","3","3","0","1","1","3","1","5","1","5","5","1","0","0","0","5","1","2","4","4","0","3","5","5","3","1","4","0","5","2","1","3","0","5","2","3","4","5","6","1","5","5","5","5","6","4","5","6","5","3","2","3","4","2","3","agree","359.0699999912176","","","","","","","","<div style=""font-size:60px;"">?</div>","76","9","1","0.5"
"image-keyboard-response","52","2057498","0.0-11.0-0.9","smf47cdyeys378j","0","1","21","09/1999","Single","English","French, Italian, Spanish","Female","White or Caucasian","No","CEGEP, non-university college, trade school or equivalent","Yes, Undergraduate studies","N/A","N/A","N/A","9","2","6","0","0","0","0.5","stim/N000.jpg","65","76","0.816666674","3","1","4","","2","2","3","3","2","2","3","3","0","1","1","3","1","5","1","5","5","1","0","0","0","5","1","2","4","4","0","3","5","5","3","1","4","0","5","2","1","3","0","5","2","3","4","5","6","1","5","5","5","5","6","4","5","6","5","3","2","3","4","2","3","agree","null","","","","","","","","stim/T250.jpg","null","","",""
"html-keyboard-response","53","2057892","0.0-11.0-1.9","smf47cdyeys378j","0","1","21","09/1999","Single","English","French, Italian, Spanish","Female","White or Caucasian","No","CEGEP, non-university college, trade school or equivalent","Yes, Undergraduate studies","N/A","N/A","N/A","9","2","6","0","0","0","0.5","stim/N000.jpg","65","76","0.816666674","3","1","4","","2","2","3","3","2","2","3","3","0","1","1","3","1","5","1","5","5","1","0","0","0","5","1","2","4","4","0","3","5","5","3","1","4","0","5","2","1","3","0","5","2","3","4","5","6","1","5","5","5","5","6","4","5","6","5","3","2","3","4","2","3","agree","393.210000009276","","","","","","","","<div style=""font-size:60px;"">?</div>","76","10","1","0.5"
"image-keyboard-response","54","2058901","0.0-11.0-0.10","smf47cdyeys378j","0","1","21","09/1999","Single","English","French, Italian, Spanish","Female","White or Caucasian","No","CEGEP, non-university college, trade school or equivalent","Yes, Undergraduate studies","N/A","N/A","N/A","9","2","6","0","0","0","0.5","stim/N000.jpg","65","76","0.816666674","3","1","4","","2","2","3","3","2","2","3","3","0","1","1","3","1","5","1","5","5","1","0","0","0","5","1","2","4","4","0","3","5","5","3","1","4","0","5","2","1","3","0","5","2","3","4","5","6","1","5","5","5","5","6","4","5","6","5","3","2","3","4","2","3","agree","null","","","","","","","","stim/H150.jpg","null","","",""
"html-keyboard-response","55","2059390","0.0-11.0-1.10","smf47cdyeys378j","0","1","21","09/1999","Single","English","French, Italian, Spanish","Female","White or Caucasian","No","CEGEP, non-university college, trade school or equivalent","Yes, Undergraduate studies","N/A","N/A","N/A","9","2","6","0","0","0","0.5","stim/N000.jpg","65","76","0.816666674","3","1","4","","2","2","3","3","2","2","3","3","0","1","1","3","1","5","1","5","5","1","0","0","0","5","1","2","4","4","0","3","5","5","3","1","4","0","5","2","1","3","0","5","2","3","4","5","6","1","5","5","5","5","6","4","5","6","5","3","2","3","4","2","3","agree","488.5900000082329","","","","","","","","<div style=""font-size:60px;"">?</div>","65","11","1","0.5"
"image-keyboard-response","56","2060400","0.0-11.0-0.11","smf47cdyeys378j","0","1","21","09/1999","Single","English","French, Italian, Spanish","Female","White or Caucasian","No","CEGEP, non-university college, trade school or equivalent","Yes, Undergraduate studies","N/A","N/A","N/A","9","2","6","0","0","0","0.5","stim/N000.jpg","65","76","0.816666674","3","1","4","","2","2","3","3","2","2","3","3","0","1","1","3","1","5","1","5","5","1","0","0","0","5","1","2","4","4","0","3","5","5","3","1","4","0","5","2","1","3","0","5","2","3","4","5","6","1","5","5","5","5","6","4","5","6","5","3","2","3","4","2","3","agree","null","","","","","","","","stim/H120.jpg","null","","",""
"html-keyboard-response","57","2060826","0.0-11.0-1.11","smf47cdyeys378j","0","1","21","09/1999","Single","English","French, Italian, Spanish","Female","White or Caucasian","No","CEGEP, non-university college, trade school or equivalent","Yes, Undergraduate studies","N/A","N/A","N/A","9","2","6","0","0","0","0.5","stim/N000.jpg","65","76","0.816666674","3","1","4","","2","2","3","3","2","2","3","3","0","1","1","3","1","5","1","5","5","1","0","0","0","5","1","2","4","4","0","3","5","5","3","1","4","0","5","2","1","3","0","5","2","3","4","5","6","1","5","5","5","5","6","4","5","6","5","3","2","3","4","2","3","agree","425.1550000044517","","","","","","","","<div style=""font-size:60px;"">?</div>","65","12","1","0.5"
"image-keyboard-response","58","2061837","0.0-11.0-0.12","smf47cdyeys378j","0","1","21","09/1999","Single","English","French, Italian, Spanish","Female","White or Caucasian","No","CEGEP, non-university college, trade school or equivalent","Yes, Undergraduate studies","N/A","N/A","N/A","9","2","6","0","0","0","0.5","stim/N000.jpg","65","76","0.816666674","3","1","4","","2","2","3","3","2","2","3","3","0","1","1","3","1","5","1","5","5","1","0","0","0","5","1","2","4","4","0","3","5","5","3","1","4","0","5","2","1","3","0","5","2","3","4","5","6","1","5","5","5","5","6","4","5","6","5","3","2","3","4","2","3","agree","null","","","","","","","","stim/H060.jpg","null","","",""
"html-keyboard-response","59","2062273","0.0-11.0-1.12","smf47cdyeys378j","0","1","21","09/1999","Single","English","French, Italian, Spanish","Female","White or Caucasian","No","CEGEP, non-university college, trade school or equivalent","Yes, Undergraduate studies","N/A","N/A","N/A","9","2","6","0","0","0","0.5","stim/N000.jpg","65","76","0.816666674","3","1","4","","2","2","3","3","2","2","3","3","0","1","1","3","1","5","1","5","5","1","0","0","0","5","1","2","4","4","0","3","5","5","3","1","4","0","5","2","1","3","0","5","2","3","4","5","6","1","5","5","5","5","6","4","5","6","5","3","2","3","4","2","3","agree","434.634999997681","","","","","","","","<div style=""font-size:60px;"">?</div>","65","13","1","0.5"
"image-keyboard-response","60","2063278","0.0-11.0-0.13","smf47cdyeys378j","0","1","21","09/1999","Single","English","French, Italian, Spanish","Female","White or Caucasian","No","CEGEP, non-university college, trade school or equivalent","Yes, Undergraduate studies","N/A","N/A","N/A","9","2","6","0","0","0","0.5","stim/N000.jpg","65","76","0.816666674","3","1","4","","2","2","3","3","2","2","3","3","0","1","1","3","1","5","1","5","5","1","0","0","0","5","1","2","4","4","0","3","5","5","3","1","4","0","5","2","1","3","0","5","2","3","4","5","6","1","5","5","5","5","6","4","5","6","5","3","2","3","4","2","3","agree","null","","","","","","","","stim/T130.jpg","null","","",""
"html-keyboard-response","61","2063648","0.0-11.0-1.13","smf47cdyeys378j","0","1","21","09/1999","Single","English","French, Italian, Spanish","Female","White or Caucasian","No","CEGEP, non-university college, trade school or equivalent","Yes, Undergraduate studies","N/A","N/A","N/A","9","2","6","0","0","0","0.5","stim/N000.jpg","65","76","0.816666674","3","1","4","","2","2","3","3","2","2","3","3","0","1","1","3","1","5","1","5","5","1","0","0","0","5","1","2","4","4","0","3","5","5","3","1","4","0","5","2","1","3","0","5","2","3","4","5","6","1","5","5","5","5","6","4","5","6","5","3","2","3","4","2","3","agree","369.1399999950081","","","","","","","","<div style=""font-size:60px;"">?</div>","76","14","1","0.5"
"image-keyboard-response","62","2064654","0.0-11.0-0.14","smf47cdyeys378j","0","1","21","09/1999","Single","English","French, Italian, Spanish","Female","White or Caucasian","No","CEGEP, non-university college, trade school or equivalent","Yes, Undergraduate studies","N/A","N/A","N/A","9","2","6","0","0","0","0.5","stim/N000.jpg","65","76","0.816666674","3","1","4","","2","2","3","3","2","2","3","3","0","1","1","3","1","5","1","5","5","1","0","0","0","5","1","2","4","4","0","3","5","5","3","1","4","0","5","2","1","3","0","5","2","3","4","5","6","1","5","5","5","5","6","4","5","6","5","3","2","3","4","2","3","agree","null","","","","","","","","stim/T080.jpg","null","","",""
"html-keyboard-response","63","2065082","0.0-11.0-1.14","smf47cdyeys378j","0","1","21","09/1999","Single","English","French, Italian, Spanish","Female","White or Caucasian","No","CEGEP, non-university college, trade school or equivalent","Yes, Undergraduate studies","N/A","N/A","N/A","9","2","6","0","0","0","0.5","stim/N000.jpg","65","76","0.816666674","3","1","4","","2","2","3","3","2","2","3","3","0","1","1","3","1","5","1","5","5","1","0","0","0","5","1","2","4","4","0","3","5","5","3","1","4","0","5","2","1","3","0","5","2","3","4","5","6","1","5","5","5","5","6","4","5","6","5","3","2","3","4","2","3","agree","427.69500000588596","","","","","","","","<div style=""font-size:60px;"">?</div>","76","15","1","0.5"
"image-keyboard-response","64","2066092","0.0-11.0-0.15","smf47cdyeys378j","0","1","21","09/1999","Single","English","French, Italian, Spanish","Female","White or Caucasian","No","CEGEP, non-university college, trade school or equivalent","Yes, Undergraduate studies","N/A","N/A","N/A","9","2","6","0","0","0","0.5","stim/N000.jpg","65","76","0.816666674","3","1","4","","2","2","3","3","2","2","3","3","0","1","1","3","1","5","1","5","5","1","0","0","0","5","1","2","4","4","0","3","5","5","3","1","4","0","5","2","1","3","0","5","2","3","4","5","6","1","5","5","5","5","6","4","5","6","5","3","2","3","4","2","3","agree","null","","","","","","","","stim/T070.jpg","null","","",""
"html-keyboard-response","65","2066789","0.0-11.0-1.15","smf47cdyeys378j","0","1","21","09/1999","Single","English","French, Italian, Spanish","Female","White or Caucasian","No","CEGEP, non-university college, trade school or equivalent","Yes, Undergraduate studies","N/A","N/A","N/A","9","2","6","0","0","0","0.5","stim/N000.jpg","65","76","0.816666674","3","1","4","","2","2","3","3","2","2","3","3","0","1","1","3","1","5","1","5","5","1","0","0","0","5","1","2","4","4","0","3","5","5","3","1","4","0","5","2","1","3","0","5","2","3","4","5","6","1","5","5","5","5","6","4","5","6","5","3","2","3","4","2","3","agree","696.0200000030454","","","","","","","","<div style=""font-size:60px;"">?</div>","76","16","1","0.5"
"image-keyboard-response","66","2067795","0.0-11.0-0.16","smf47cdyeys378j","0","1","21","09/1999","Single","English","French, Italian, Spanish","Female","White or Caucasian","No","CEGEP, non-university college, trade school or equivalent","Yes, Undergraduate studies","N/A","N/A","N/A","9","2","6","0","0","0","0.5","stim/N000.jpg","65","76","0.816666674","3","1","4","","2","2","3","3","2","2","3","3","0","1","1","3","1","5","1","5","5","1","0","0","0","5","1","2","4","4","0","3","5","5","3","1","4","0","5","2","1","3","0","5","2","3","4","5","6","1","5","5","5","5","6","4","5","6","5","3","2","3","4","2","3","agree","null","","","","","","","","stim/H070.jpg","null","","",""
"html-keyboard-response","67","2068391","0.0-11.0-1.16","smf47cdyeys378j","0","1","21","09/1999","Single","English","French, Italian, Spanish","Female","White or Caucasian","No","CEGEP, non-university college, trade school or equivalent","Yes, Undergraduate studies","N/A","N/A","N/A","9","2","6","0","0","0","0.5","stim/N000.jpg","65","76","0.816666674","3","1","4","","2","2","3","3","2","2","3","3","0","1","1","3","1","5","1","5","5","1","0","0","0","5","1","2","4","4","0","3","5","5","3","1","4","0","5","2","1","3","0","5","2","3","4","5","6","1","5","5","5","5","6","4","5","6","5","3","2","3","4","2","3","agree","595.3699999954551","","","","","","","","<div style=""font-size:60px;"">?</div>","65","17","1","0.5"
"image-keyboard-response","68","2069403","0.0-11.0-0.17","smf47cdyeys378j","0","1","21","09/1999","Single","English","French, Italian, Spanish","Female","White or Caucasian","No","CEGEP, non-university college, trade school or equivalent","Yes, Undergraduate studies","N/A","N/A","N/A","9","2","6","0","0","0","0.5","stim/N000.jpg","65","76","0.816666674","3","1","4","","2","2","3","3","2","2","3","3","0","1","1","3","1","5","1","5","5","1","0","0","0","5","1","2","4","4","0","3","5","5","3","1","4","0","5","2","1","3","0","5","2","3","4","5","6","1","5","5","5","5","6","4","5","6","5","3","2","3","4","2","3","agree","null","","","","","","","","stim/T200.jpg","null","","",""
"html-keyboard-response","69","2069824","0.0-11.0-1.17","smf47cdyeys378j","0","1","21","09/1999","Single","English","French, Italian, Spanish","Female","White or Caucasian","No","CEGEP, non-university college, trade school or equivalent","Yes, Undergraduate studies","N/A","N/A","N/A","9","2","6","0","0","0","0.5","stim/N000.jpg","65","76","0.816666674","3","1","4","","2","2","3","3","2","2","3","3","0","1","1","3","1","5","1","5","5","1","0","0","0","5","1","2","4","4","0","3","5","5","3","1","4","0","5","2","1","3","0","5","2","3","4","5","6","1","5","5","5","5","6","4","5","6","5","3","2","3","4","2","3","agree","420.8750000107102","","","","","","","","<div style=""font-size:60px;"">?</div>","76","18","1","0.5"
"image-keyboard-response","70","2070832","0.0-11.0-0.18","smf47cdyeys378j","0","1","21","09/1999","Single","English","French, Italian, Spanish","Female","White or Caucasian","No","CEGEP, non-university college, trade school or equivalent","Yes, Undergraduate studies","N/A","N/A","N/A","9","2","6","0","0","0","0.5","stim/N000.jpg","65","76","0.816666674","3","1","4","","2","2","3","3","2","2","3","3","0","1","1","3","1","5","1","5","5","1","0","0","0","5","1","2","4","4","0","3","5","5","3","1","4","0","5","2","1","3","0","5","2","3","4","5","6","1","5","5","5","5","6","4","5","6","5","3","2","3","4","2","3","agree","null","","","","","","","","stim/H220.jpg","null","","",""
"html-keyboard-response","71","2071466","0.0-11.0-1.18","smf47cdyeys378j","0","1","21","09/1999","Single","English","French, Italian, Spanish","Female","White or Caucasian","No","CEGEP, non-university college, trade school or equivalent","Yes, Undergraduate studies","N/A","N/A","N/A","9","2","6","0","0","0","0.5","stim/N000.jpg","65","76","0.816666674","3","1","4","","2","2","3","3","2","2","3","3","0","1","1","3","1","5","1","5","5","1","0","0","0","5","1","2","4","4","0","3","5","5","3","1","4","0","5","2","1","3","0","5","2","3","4","5","6","1","5","5","5","5","6","4","5","6","5","3","2","3","4","2","3","agree","633.5350000008475","","","","","","","","<div style=""font-size:60px;"">?</div>","65","19","1","0.5"
"image-keyboard-response","72","2072471","0.0-11.0-0.19","smf47cdyeys378j","0","1","21","09/1999","Single","English","French, Italian, Spanish","Female","White or Caucasian","No","CEGEP, non-university college, trade school or equivalent","Yes, Undergraduate studies","N/A","N/A","N/A","9","2","6","0","0","0","0.5","stim/N000.jpg","65","76","0.816666674","3","1","4","","2","2","3","3","2","2","3","3","0","1","1","3","1","5","1","5","5","1","0","0","0","5","1","2","4","4","0","3","5","5","3","1","4","0","5","2","1","3","0","5","2","3","4","5","6","1","5","5","5","5","6","4","5","6","5","3","2","3","4","2","3","agree","null","","","","","","","","stim/T200.jpg","null","","",""
"html-keyboard-response","73","2072969","0.0-11.0-1.19","smf47cdyeys378j","0","1","21","09/1999","Single","English","French, Italian, Spanish","Female","White or Caucasian","No","CEGEP, non-university college, trade school or equivalent","Yes, Undergraduate studies","N/A","N/A","N/A","9","2","6","0","0","0","0.5","stim/N000.jpg","65","76","0.816666674","3","1","4","","2","2","3","3","2","2","3","3","0","1","1","3","1","5","1","5","5","1","0","0","0","5","1","2","4","4","0","3","5","5","3","1","4","0","5","2","1","3","0","5","2","3","4","5","6","1","5","5","5","5","6","4","5","6","5","3","2","3","4","2","3","agree","497.0199999951292","","","","","","","","<div style=""font-size:60px;"">?</div>","76","20","1","0.5"
"image-keyboard-response","74","2073980","0.0-11.0-0.20","smf47cdyeys378j","0","1","21","09/1999","Single","English","French, Italian, Spanish","Female","White or Caucasian","No","CEGEP, non-university college, trade school or equivalent","Yes, Undergraduate studies","N/A","N/A","N/A","9","2","6","0","0","0","0.5","stim/N000.jpg","65","76","0.816666674","3","1","4","","2","2","3","3","2","2","3","3","0","1","1","3","1","5","1","5","5","1","0","0","0","5","1","2","4","4","0","3","5","5","3","1","4","0","5","2","1","3","0","5","2","3","4","5","6","1","5","5","5","5","6","4","5","6","5","3","2","3","4","2","3","agree","null","","","","","","","","stim/H140.jpg","null","","",""
"html-keyboard-response","75","2074466","0.0-11.0-1.20","smf47cdyeys378j","0","1","21","09/1999","Single","English","French, Italian, Spanish","Female","White or Caucasian","No","CEGEP, non-university college, trade school or equivalent","Yes, Undergraduate studies","N/A","N/A","N/A","9","2","6","0","0","0","0.5","stim/N000.jpg","65","76","0.816666674","3","1","4","","2","2","3","3","2","2","3","3","0","1","1","3","1","5","1","5","5","1","0","0","0","5","1","2","4","4","0","3","5","5","3","1","4","0","5","2","1","3","0","5","2","3","4","5","6","1","5","5","5","5","6","4","5","6","5","3","2","3","4","2","3","agree","485.7200000116136","","","","","","","","<div style=""font-size:60px;"">?</div>","65","21","1","0.5"
"image-keyboard-response","76","2075477","0.0-11.0-0.21","smf47cdyeys378j","0","1","21","09/1999","Single","English","French, Italian, Spanish","Female","White or Caucasian","No","CEGEP, non-university college, trade school or equivalent","Yes, Undergraduate studies","N/A","N/A","N/A","9","2","6","0","0","0","0.5","stim/N000.jpg","65","76","0.816666674","3","1","4","","2","2","3","3","2","2","3","3","0","1","1","3","1","5","1","5","5","1","0","0","0","5","1","2","4","4","0","3","5","5","3","1","4","0","5","2","1","3","0","5","2","3","4","5","6","1","5","5","5","5","6","4","5","6","5","3","2","3","4","2","3","agree","null","","","","","","","","stim/T010.jpg","null","","",""
"html-keyboard-response","77","2076155","0.0-11.0-1.21","smf47cdyeys378j","0","1","21","09/1999","Single","English","French, Italian, Spanish","Female","White or Caucasian","No","CEGEP, non-university college, trade school or equivalent","Yes, Undergraduate studies","N/A","N/A","N/A","9","2","6","0","0","0","0.5","stim/N000.jpg","65","76","0.816666674","3","1","4","","2","2","3","3","2","2","3","3","0","1","1","3","1","5","1","5","5","1","0","0","0","5","1","2","4","4","0","3","5","5","3","1","4","0","5","2","1","3","0","5","2","3","4","5","6","1","5","5","5","5","6","4","5","6","5","3","2","3","4","2","3","agree","677.0499999984168","","","","","","","","<div style=""font-size:60px;"">?</div>","65","22","1","0.5"
"image-keyboard-response","78","2077162","0.0-11.0-0.22","smf47cdyeys378j","0","1","21","09/1999","Single","English","French, Italian, Spanish","Female","White or Caucasian","No","CEGEP, non-university college, trade school or equivalent","Yes, Undergraduate studies","N/A","N/A","N/A","9","2","6","0","0","0","0.5","stim/N000.jpg","65","76","0.816666674","3","1","4","","2","2","3","3","2","2","3","3","0","1","1","3","1","5","1","5","5","1","0","0","0","5","1","2","4","4","0","3","5","5","3","1","4","0","5","2","1","3","0","5","2","3","4","5","6","1","5","5","5","5","6","4","5","6","5","3","2","3","4","2","3","agree","null","","","","","","","","stim/T230.jpg","null","","",""
"html-keyboard-response","79","2077594","0.0-11.0-1.22","smf47cdyeys378j","0","1","21","09/1999","Single","English","French, Italian, Spanish","Female","White or Caucasian","No","CEGEP, non-university college, trade school or equivalent","Yes, Undergraduate studies","N/A","N/A","N/A","9","2","6","0","0","0","0.5","stim/N000.jpg","65","76","0.816666674","3","1","4","","2","2","3","3","2","2","3","3","0","1","1","3","1","5","1","5","5","1","0","0","0","5","1","2","4","4","0","3","5","5","3","1","4","0","5","2","1","3","0","5","2","3","4","5","6","1","5","5","5","5","6","4","5","6","5","3","2","3","4","2","3","agree","431.6350000007078","","","","","","","","<div style=""font-size:60px;"">?</div>","76","23","1","0.5"
"image-keyboard-response","80","2078605","0.0-11.0-0.23","smf47cdyeys378j","0","1","21","09/1999","Single","English","French, Italian, Spanish","Female","White or Caucasian","No","CEGEP, non-university college, trade school or equivalent","Yes, Undergraduate studies","N/A","N/A","N/A","9","2","6","0","0","0","0.5","stim/N000.jpg","65","76","0.816666674","3","1","4","","2","2","3","3","2","2","3","3","0","1","1","3","1","5","1","5","5","1","0","0","0","5","1","2","4","4","0","3","5","5","3","1","4","0","5","2","1","3","0","5","2","3","4","5","6","1","5","5","5","5","6","4","5","6","5","3","2","3","4","2","3","agree","null","","","","","","","","stim/T180.jpg","null","","",""
"html-keyboard-response","81","2079007","0.0-11.0-1.23","smf47cdyeys378j","0","1","21","09/1999","Single","English","French, Italian, Spanish","Female","White or Caucasian","No","CEGEP, non-university college, trade school or equivalent","Yes, Undergraduate studies","N/A","N/A","N/A","9","2","6","0","0","0","0.5","stim/N000.jpg","65","76","0.816666674","3","1","4","","2","2","3","3","2","2","3","3","0","1","1","3","1","5","1","5","5","1","0","0","0","5","1","2","4","4","0","3","5","5","3","1","4","0","5","2","1","3","0","5","2","3","4","5","6","1","5","5","5","5","6","4","5","6","5","3","2","3","4","2","3","agree","401.6399999964051","","","","","","","","<div style=""font-size:60px;"">?</div>","76","24","1","0.5"
"image-keyboard-response","82","2080018","0.0-11.0-0.24","smf47cdyeys378j","0","1","21","09/1999","Single","English","French, Italian, Spanish","Female","White or Caucasian","No","CEGEP, non-university college, trade school or equivalent","Yes, Undergraduate studies","N/A","N/A","N/A","9","2","6","0","0","0","0.5","stim/N000.jpg","65","76","0.816666674","3","1","4","","2","2","3","3","2","2","3","3","0","1","1","3","1","5","1","5","5","1","0","0","0","5","1","2","4","4","0","3","5","5","3","1","4","0","5","2","1","3","0","5","2","3","4","5","6","1","5","5","5","5","6","4","5","6","5","3","2","3","4","2","3","agree","null","","","","","","","","stim/H090.jpg","null","","",""
"html-keyboard-response","83","2080465","0.0-11.0-1.24","smf47cdyeys378j","0","1","21","09/1999","Single","English","French, Italian, Spanish","Female","White or Caucasian","No","CEGEP, non-university college, trade school or equivalent","Yes, Undergraduate studies","N/A","N/A","N/A","9","2","6","0","0","0","0.5","stim/N000.jpg","65","76","0.816666674","3","1","4","","2","2","3","3","2","2","3","3","0","1","1","3","1","5","1","5","5","1","0","0","0","5","1","2","4","4","0","3","5","5","3","1","4","0","5","2","1","3","0","5","2","3","4","5","6","1","5","5","5","5","6","4","5","6","5","3","2","3","4","2","3","agree","446.0799999940209","","","","","","","","<div style=""font-size:60px;"">?</div>","65","25","1","0.5"
"image-keyboard-response","84","2081471","0.0-11.0-0.25","smf47cdyeys378j","0","1","21","09/1999","Single","English","French, Italian, Spanish","Female","White or Caucasian","No","CEGEP, non-university college, trade school or equivalent","Yes, Undergraduate studies","N/A","N/A","N/A","9","2","6","0","0","0","0.5","stim/N000.jpg","65","76","0.816666674","3","1","4","","2","2","3","3","2","2","3","3","0","1","1","3","1","5","1","5","5","1","0","0","0","5","1","2","4","4","0","3","5","5","3","1","4","0","5","2","1","3","0","5","2","3","4","5","6","1","5","5","5","5","6","4","5","6","5","3","2","3","4","2","3","agree","null","","","","","","","","stim/T230.jpg","null","","",""
"html-keyboard-response","85","2081892","0.0-11.0-1.25","smf47cdyeys378j","0","1","21","09/1999","Single","English","French, Italian, Spanish","Female","White or Caucasian","No","CEGEP, non-university college, trade school or equivalent","Yes, Undergraduate studies","N/A","N/A","N/A","9","2","6","0","0","0","0.5","stim/N000.jpg","65","76","0.816666674","3","1","4","","2","2","3","3","2","2","3","3","0","1","1","3","1","5","1","5","5","1","0","0","0","5","1","2","4","4","0","3","5","5","3","1","4","0","5","2","1","3","0","5","2","3","4","5","6","1","5","5","5","5","6","4","5","6","5","3","2","3","4","2","3","agree","420.0750000018161","","","","","","","","<div style=""font-size:60px;"">?</div>","76","26","1","0.5"
"image-keyboard-response","86","2082895","0.0-11.0-0.26","smf47cdyeys378j","0","1","21","09/1999","Single","English","French, Italian, Spanish","Female","White or Caucasian","No","CEGEP, non-university college, trade school or equivalent","Yes, Undergraduate studies","N/A","N/A","N/A","9","2","6","0","0","0","0.5","stim/N000.jpg","65","76","0.816666674","3","1","4","","2","2","3","3","2","2","3","3","0","1","1","3","1","5","1","5","5","1","0","0","0","5","1","2","4","4","0","3","5","5","3","1","4","0","5","2","1","3","0","5","2","3","4","5","6","1","5","5","5","5","6","4","5","6","5","3","2","3","4","2","3","agree","null","","","","","","","","stim/T050.jpg","null","","",""
"html-keyboard-response","87","2083409","0.0-11.0-1.26","smf47cdyeys378j","0","1","21","09/1999","Single","English","French, Italian, Spanish","Female","White or Caucasian","No","CEGEP, non-university college, trade school or equivalent","Yes, Undergraduate studies","N/A","N/A","N/A","9","2","6","0","0","0","0.5","stim/N000.jpg","65","76","0.816666674","3","1","4","","2","2","3","3","2","2","3","3","0","1","1","3","1","5","1","5","5","1","0","0","0","5","1","2","4","4","0","3","5","5","3","1","4","0","5","2","1","3","0","5","2","3","4","5","6","1","5","5","5","5","6","4","5","6","5","3","2","3","4","2","3","agree","513.1000000108033","","","","","","","","<div style=""font-size:60px;"">?</div>","76","27","1","0.5"
"image-keyboard-response","88","2084412","0.0-11.0-0.27","smf47cdyeys378j","0","1","21","09/1999","Single","English","French, Italian, Spanish","Female","White or Caucasian","No","CEGEP, non-university college, trade school or equivalent","Yes, Undergraduate studies","N/A","N/A","N/A","9","2","6","0","0","0","0.5","stim/N000.jpg","65","76","0.816666674","3","1","4","","2","2","3","3","2","2","3","3","0","1","1","3","1","5","1","5","5","1","0","0","0","5","1","2","4","4","0","3","5","5","3","1","4","0","5","2","1","3","0","5","2","3","4","5","6","1","5","5","5","5","6","4","5","6","5","3","2","3","4","2","3","agree","null","","","","","","","","stim/H130.jpg","null","","",""
"html-keyboard-response","89","2084831","0.0-11.0-1.27","smf47cdyeys378j","0","1","21","09/1999","Single","English","French, Italian, Spanish","Female","White or Caucasian","No","CEGEP, non-university college, trade school or equivalent","Yes, Undergraduate studies","N/A","N/A","N/A","9","2","6","0","0","0","0.5","stim/N000.jpg","65","76","0.816666674","3","1","4","","2","2","3","3","2","2","3","3","0","1","1","3","1","5","1","5","5","1","0","0","0","5","1","2","4","4","0","3","5","5","3","1","4","0","5","2","1","3","0","5","2","3","4","5","6","1","5","5","5","5","6","4","5","6","5","3","2","3","4","2","3","agree","418.3749999939464","","","","","","","","<div style=""font-size:60px;"">?</div>","65","28","1","0.5"
"image-keyboard-response","90","2085842","0.0-11.0-0.28","smf47cdyeys378j","0","1","21","09/1999","Single","English","French, Italian, Spanish","Female","White or Caucasian","No","CEGEP, non-university college, trade school or equivalent","Yes, Undergraduate studies","N/A","N/A","N/A","9","2","6","0","0","0","0.5","stim/N000.jpg","65","76","0.816666674","3","1","4","","2","2","3","3","2","2","3","3","0","1","1","3","1","5","1","5","5","1","0","0","0","5","1","2","4","4","0","3","5","5","3","1","4","0","5","2","1","3","0","5","2","3","4","5","6","1","5","5","5","5","6","4","5","6","5","3","2","3","4","2","3","agree","null","","","","","","","","stim/T160.jpg","null","","",""
"html-keyboard-response","91","2086274","0.0-11.0-1.28","smf47cdyeys378j","0","1","21","09/1999","Single","English","French, Italian, Spanish","Female","White or Caucasian","No","CEGEP, non-university college, trade school or equivalent","Yes, Undergraduate studies","N/A","N/A","N/A","9","2","6","0","0","0","0.5","stim/N000.jpg","65","76","0.816666674","3","1","4","","2","2","3","3","2","2","3","3","0","1","1","3","1","5","1","5","5","1","0","0","0","5","1","2","4","4","0","3","5","5","3","1","4","0","5","2","1","3","0","5","2","3","4","5","6","1","5","5","5","5","6","4","5","6","5","3","2","3","4","2","3","agree","431.45499999797903","","","","","","","","<div style=""font-size:60px;"">?</div>","76","29","1","0.5"
"image-keyboard-response","92","2087285","0.0-11.0-0.29","smf47cdyeys378j","0","1","21","09/1999","Single","English","French, Italian, Spanish","Female","White or Caucasian","No","CEGEP, non-university college, trade school or equivalent","Yes, Undergraduate studies","N/A","N/A","N/A","9","2","6","0","0","0","0.5","stim/N000.jpg","65","76","0.816666674","3","1","4","","2","2","3","3","2","2","3","3","0","1","1","3","1","5","1","5","5","1","0","0","0","5","1","2","4","4","0","3","5","5","3","1","4","0","5","2","1","3","0","5","2","3","4","5","6","1","5","5","5","5","6","4","5","6","5","3","2","3","4","2","3","agree","null","","","","","","","","stim/T220.jpg","null","","",""
"html-keyboard-response","93","2087750","0.0-11.0-1.29","smf47cdyeys378j","0","1","21","09/1999","Single","English","French, Italian, Spanish","Female","White or Caucasian","No","CEGEP, non-university college, trade school or equivalent","Yes, Undergraduate studies","N/A","N/A","N/A","9","2","6","0","0","0","0.5","stim/N000.jpg","65","76","0.816666674","3","1","4","","2","2","3","3","2","2","3","3","0","1","1","3","1","5","1","5","5","1","0","0","0","5","1","2","4","4","0","3","5","5","3","1","4","0","5","2","1","3","0","5","2","3","4","5","6","1","5","5","5","5","6","4","5","6","5","3","2","3","4","2","3","agree","463.2299999939278","","","","","","","","<div style=""font-size:60px;"">?</div>","76","30","1","0.5"
"image-keyboard-response","94","2088760","0.0-11.0-0.30","smf47cdyeys378j","0","1","21","09/1999","Single","English","French, Italian, Spanish","Female","White or Caucasian","No","CEGEP, non-university college, trade school or equivalent","Yes, Undergraduate studies","N/A","N/A","N/A","9","2","6","0","0","0","0.5","stim/N000.jpg","65","76","0.816666674","3","1","4","","2","2","3","3","2","2","3","3","0","1","1","3","1","5","1","5","5","1","0","0","0","5","1","2","4","4","0","3","5","5","3","1","4","0","5","2","1","3","0","5","2","3","4","5","6","1","5","5","5","5","6","4","5","6","5","3","2","3","4","2","3","agree","null","","","","","","","","stim/T090.jpg","null","","",""
"html-keyboard-response","95","2089223","0.0-11.0-1.30","smf47cdyeys378j","0","1","21","09/1999","Single","English","French, Italian, Spanish","Female","White or Caucasian","No","CEGEP, non-university college, trade school or equivalent","Yes, Undergraduate studies","N/A","N/A","N/A","9","2","6","0","0","0","0.5","stim/N000.jpg","65","76","0.816666674","3","1","4","","2","2","3","3","2","2","3","3","0","1","1","3","1","5","1","5","5","1","0","0","0","5","1","2","4","4","0","3","5","5","3","1","4","0","5","2","1","3","0","5","2","3","4","5","6","1","5","5","5","5","6","4","5","6","5","3","2","3","4","2","3","agree","462.1049999985844","","","","","","","","<div style=""font-size:60px;"">?</div>","76","31","1","0.5"
"image-keyboard-response","96","2090231","0.0-11.0-0.31","smf47cdyeys378j","0","1","21","09/1999","Single","English","French, Italian, Spanish","Female","White or Caucasian","No","CEGEP, non-university college, trade school or equivalent","Yes, Undergraduate studies","N/A","N/A","N/A","9","2","6","0","0","0","0.5","stim/N000.jpg","65","76","0.816666674","3","1","4","","2","2","3","3","2","2","3","3","0","1","1","3","1","5","1","5","5","1","0","0","0","5","1","2","4","4","0","3","5","5","3","1","4","0","5","2","1","3","0","5","2","3","4","5","6","1","5","5","5","5","6","4","5","6","5","3","2","3","4","2","3","agree","null","","","","","","","","stim/H120.jpg","null","","",""
"html-keyboard-response","97","2090656","0.0-11.0-1.31","smf47cdyeys378j","0","1","21","09/1999","Single","English","French, Italian, Spanish","Female","White or Caucasian","No","CEGEP, non-university college, trade school or equivalent","Yes, Undergraduate studies","N/A","N/A","N/A","9","2","6","0","0","0","0.5","stim/N000.jpg","65","76","0.816666674","3","1","4","","2","2","3","3","2","2","3","3","0","1","1","3","1","5","1","5","5","1","0","0","0","5","1","2","4","4","0","3","5","5","3","1","4","0","5","2","1","3","0","5","2","3","4","5","6","1","5","5","5","5","6","4","5","6","5","3","2","3","4","2","3","agree","423.744999992894","","","","","","","","<div style=""font-size:60px;"">?</div>","65","32","1","0.5"
"image-keyboard-response","98","2091667","0.0-11.0-0.32","smf47cdyeys378j","0","1","21","09/1999","Single","English","French, Italian, Spanish","Female","White or Caucasian","No","CEGEP, non-university college, trade school or equivalent","Yes, Undergraduate studies","N/A","N/A","N/A","9","2","6","0","0","0","0.5","stim/N000.jpg","65","76","0.816666674","3","1","4","","2","2","3","3","2","2","3","3","0","1","1","3","1","5","1","5","5","1","0","0","0","5","1","2","4","4","0","3","5","5","3","1","4","0","5","2","1","3","0","5","2","3","4","5","6","1","5","5","5","5","6","4","5","6","5","3","2","3","4","2","3","agree","null","","","","","","","","stim/T190.jpg","null","","",""
"html-keyboard-response","99","2092044","0.0-11.0-1.32","smf47cdyeys378j","0","1","21","09/1999","Single","English","French, Italian, Spanish","Female","White or Caucasian","No","CEGEP, non-university college, trade school or equivalent","Yes, Undergraduate studies","N/A","N/A","N/A","9","2","6","0","0","0","0.5","stim/N000.jpg","65","76","0.816666674","3","1","4","","2","2","3","3","2","2","3","3","0","1","1","3","1","5","1","5","5","1","0","0","0","5","1","2","4","4","0","3","5","5","3","1","4","0","5","2","1","3","0","5","2","3","4","5","6","1","5","5","5","5","6","4","5","6","5","3","2","3","4","2","3","agree","376.0349999938626","","","","","","","","<div style=""font-size:60px;"">?</div>","76","33","1","0.5"
"image-keyboard-response","100","2093055","0.0-11.0-0.33","smf47cdyeys378j","0","1","21","09/1999","Single","English","French, Italian, Spanish","Female","White or Caucasian","No","CEGEP, non-university college, trade school or equivalent","Yes, Undergraduate studies","N/A","N/A","N/A","9","2","6","0","0","0","0.5","stim/N000.jpg","65","76","0.816666674","3","1","4","","2","2","3","3","2","2","3","3","0","1","1","3","1","5","1","5","5","1","0","0","0","5","1","2","4","4","0","3","5","5","3","1","4","0","5","2","1","3","0","5","2","3","4","5","6","1","5","5","5","5","6","4","5","6","5","3","2","3","4","2","3","agree","null","","","","","","","","stim/T300.jpg","null","","",""
"html-keyboard-response","101","2093459","0.0-11.0-1.33","smf47cdyeys378j","0","1","21","09/1999","Single","English","French, Italian, Spanish","Female","White or Caucasian","No","CEGEP, non-university college, trade school or equivalent","Yes, Undergraduate studies","N/A","N/A","N/A","9","2","6","0","0","0","0.5","stim/N000.jpg","65","76","0.816666674","3","1","4","","2","2","3","3","2","2","3","3","0","1","1","3","1","5","1","5","5","1","0","0","0","5","1","2","4","4","0","3","5","5","3","1","4","0","5","2","1","3","0","5","2","3","4","5","6","1","5","5","5","5","6","4","5","6","5","3","2","3","4","2","3","agree","403.6199999973178","","","","","","","","<div style=""font-size:60px;"">?</div>","76","34","1","0.5"
"image-keyboard-response","102","2094470","0.0-11.0-0.34","smf47cdyeys378j","0","1","21","09/1999","Single","English","French, Italian, Spanish","Female","White or Caucasian","No","CEGEP, non-university college, trade school or equivalent","Yes, Undergraduate studies","N/A","N/A","N/A","9","2","6","0","0","0","0.5","stim/N000.jpg","65","76","0.816666674","3","1","4","","2","2","3","3","2","2","3","3","0","1","1","3","1","5","1","5","5","1","0","0","0","5","1","2","4","4","0","3","5","5","3","1","4","0","5","2","1","3","0","5","2","3","4","5","6","1","5","5","5","5","6","4","5","6","5","3","2","3","4","2","3","agree","null","","","","","","","","stim/H180.jpg","null","","",""
"html-keyboard-response","103","2094871","0.0-11.0-1.34","smf47cdyeys378j","0","1","21","09/1999","Single","English","French, Italian, Spanish","Female","White or Caucasian","No","CEGEP, non-university college, trade school or equivalent","Yes, Undergraduate studies","N/A","N/A","N/A","9","2","6","0","0","0","0.5","stim/N000.jpg","65","76","0.816666674","3","1","4","","2","2","3","3","2","2","3","3","0","1","1","3","1","5","1","5","5","1","0","0","0","5","1","2","4","4","0","3","5","5","3","1","4","0","5","2","1","3","0","5","2","3","4","5","6","1","5","5","5","5","6","4","5","6","5","3","2","3","4","2","3","agree","399.6950000000652","","","","","","","","<div style=""font-size:60px;"">?</div>","65","35","1","0.5"
"image-keyboard-response","104","2095882","0.0-11.0-0.35","smf47cdyeys378j","0","1","21","09/1999","Single","English","French, Italian, Spanish","Female","White or Caucasian","No","CEGEP, non-university college, trade school or equivalent","Yes, Undergraduate studies","N/A","N/A","N/A","9","2","6","0","0","0","0.5","stim/N000.jpg","65","76","0.816666674","3","1","4","","2","2","3","3","2","2","3","3","0","1","1","3","1","5","1","5","5","1","0","0","0","5","1","2","4","4","0","3","5","5","3","1","4","0","5","2","1","3","0","5","2","3","4","5","6","1","5","5","5","5","6","4","5","6","5","3","2","3","4","2","3","agree","null","","","","","","","","stim/H140.jpg","null","","",""
"html-keyboard-response","105","2096287","0.0-11.0-1.35","smf47cdyeys378j","0","1","21","09/1999","Single","English","French, Italian, Spanish","Female","White or Caucasian","No","CEGEP, non-university college, trade school or equivalent","Yes, Undergraduate studies","N/A","N/A","N/A","9","2","6","0","0","0","0.5","stim/N000.jpg","65","76","0.816666674","3","1","4","","2","2","3","3","2","2","3","3","0","1","1","3","1","5","1","5","5","1","0","0","0","5","1","2","4","4","0","3","5","5","3","1","4","0","5","2","1","3","0","5","2","3","4","5","6","1","5","5","5","5","6","4","5","6","5","3","2","3","4","2","3","agree","405.0900000000838","","","","","","","","<div style=""font-size:60px;"">?</div>","65","36","1","0.5"
"image-keyboard-response","106","2097296","0.0-11.0-0.36","smf47cdyeys378j","0","1","21","09/1999","Single","English","French, Italian, Spanish","Female","White or Caucasian","No","CEGEP, non-university college, trade school or equivalent","Yes, Undergraduate studies","N/A","N/A","N/A","9","2","6","0","0","0","0.5","stim/N000.jpg","65","76","0.816666674","3","1","4","","2","2","3","3","2","2","3","3","0","1","1","3","1","5","1","5","5","1","0","0","0","5","1","2","4","4","0","3","5","5","3","1","4","0","5","2","1","3","0","5","2","3","4","5","6","1","5","5","5","5","6","4","5","6","5","3","2","3","4","2","3","agree","null","","","","","","","","stim/H210.jpg","null","","",""
"html-keyboard-response","107","2097728","0.0-11.0-1.36","smf47cdyeys378j","0","1","21","09/1999","Single","English","French, Italian, Spanish","Female","White or Caucasian","No","CEGEP, non-university college, trade school or equivalent","Yes, Undergraduate studies","N/A","N/A","N/A","9","2","6","0","0","0","0.5","stim/N000.jpg","65","76","0.816666674","3","1","4","","2","2","3","3","2","2","3","3","0","1","1","3","1","5","1","5","5","1","0","0","0","5","1","2","4","4","0","3","5","5","3","1","4","0","5","2","1","3","0","5","2","3","4","5","6","1","5","5","5","5","6","4","5","6","5","3","2","3","4","2","3","agree","430.8349999918137","","","","","","","","<div style=""font-size:60px;"">?</div>","65","37","1","0.5"
"image-keyboard-response","108","2098737","0.0-11.0-0.37","smf47cdyeys378j","0","1","21","09/1999","Single","English","French, Italian, Spanish","Female","White or Caucasian","No","CEGEP, non-university college, trade school or equivalent","Yes, Undergraduate studies","N/A","N/A","N/A","9","2","6","0","0","0","0.5","stim/N000.jpg","65","76","0.816666674","3","1","4","","2","2","3","3","2","2","3","3","0","1","1","3","1","5","1","5","5","1","0","0","0","5","1","2","4","4","0","3","5","5","3","1","4","0","5","2","1","3","0","5","2","3","4","5","6","1","5","5","5","5","6","4","5","6","5","3","2","3","4","2","3","agree","null","","","","","","","","stim/H010.jpg","null","","",""
"html-keyboard-response","109","2099183","0.0-11.0-1.37","smf47cdyeys378j","0","1","21","09/1999","Single","English","French, Italian, Spanish","Female","White or Caucasian","No","CEGEP, non-university college, trade school or equivalent","Yes, Undergraduate studies","N/A","N/A","N/A","9","2","6","0","0","0","0.5","stim/N000.jpg","65","76","0.816666674","3","1","4","","2","2","3","3","2","2","3","3","0","1","1","3","1","5","1","5","5","1","0","0","0","5","1","2","4","4","0","3","5","5","3","1","4","0","5","2","1","3","0","5","2","3","4","5","6","1","5","5","5","5","6","4","5","6","5","3","2","3","4","2","3","agree","444.63500000722706","","","","","","","","<div style=""font-size:60px;"">?</div>","76","38","1","0.5"
"image-keyboard-response","110","2100184","0.0-11.0-0.38","smf47cdyeys378j","0","1","21","09/1999","Single","English","French, Italian, Spanish","Female","White or Caucasian","No","CEGEP, non-university college, trade school or equivalent","Yes, Undergraduate studies","N/A","N/A","N/A","9","2","6","0","0","0","0.5","stim/N000.jpg","65","76","0.816666674","3","1","4","","2","2","3","3","2","2","3","3","0","1","1","3","1","5","1","5","5","1","0","0","0","5","1","2","4","4","0","3","5","5","3","1","4","0","5","2","1","3","0","5","2","3","4","5","6","1","5","5","5","5","6","4","5","6","5","3","2","3","4","2","3","agree","null","","","","","","","","stim/H030.jpg","null","","",""
"html-keyboard-response","111","2100670","0.0-11.0-1.38","smf47cdyeys378j","0","1","21","09/1999","Single","English","French, Italian, Spanish","Female","White or Caucasian","No","CEGEP, non-university college, trade school or equivalent","Yes, Undergraduate studies","N/A","N/A","N/A","9","2","6","0","0","0","0.5","stim/N000.jpg","65","76","0.816666674","3","1","4","","2","2","3","3","2","2","3","3","0","1","1","3","1","5","1","5","5","1","0","0","0","5","1","2","4","4","0","3","5","5","3","1","4","0","5","2","1","3","0","5","2","3","4","5","6","1","5","5","5","5","6","4","5","6","5","3","2","3","4","2","3","agree","484.3399999951944","","","","","","","","<div style=""font-size:60px;"">?</div>","76","39","1","0.5"
"image-keyboard-response","112","2101681","0.0-11.0-0.39","smf47cdyeys378j","0","1","21","09/1999","Single","English","French, Italian, Spanish","Female","White or Caucasian","No","CEGEP, non-university college, trade school or equivalent","Yes, Undergraduate studies","N/A","N/A","N/A","9","2","6","0","0","0","0.5","stim/N000.jpg","65","76","0.816666674","3","1","4","","2","2","3","3","2","2","3","3","0","1","1","3","1","5","1","5","5","1","0","0","0","5","1","2","4","4","0","3","5","5","3","1","4","0","5","2","1","3","0","5","2","3","4","5","6","1","5","5","5","5","6","4","5","6","5","3","2","3","4","2","3","agree","null","","","","","","","","stim/H270.jpg","null","","",""
"html-keyboard-response","113","2102083","0.0-11.0-1.39","smf47cdyeys378j","0","1","21","09/1999","Single","English","French, Italian, Spanish","Female","White or Caucasian","No","CEGEP, non-university college, trade school or equivalent","Yes, Undergraduate studies","N/A","N/A","N/A","9","2","6","0","0","0","0.5","stim/N000.jpg","65","76","0.816666674","3","1","4","","2","2","3","3","2","2","3","3","0","1","1","3","1","5","1","5","5","1","0","0","0","5","1","2","4","4","0","3","5","5","3","1","4","0","5","2","1","3","0","5","2","3","4","5","6","1","5","5","5","5","6","4","5","6","5","3","2","3","4","2","3","agree","401.16500000306405","","","","","","","","<div style=""font-size:60px;"">?</div>","65","40","1","0.5"
"image-keyboard-response","114","2103087","0.0-11.0-0.40","smf47cdyeys378j","0","1","21","09/1999","Single","English","French, Italian, Spanish","Female","White or Caucasian","No","CEGEP, non-university college, trade school or equivalent","Yes, Undergraduate studies","N/A","N/A","N/A","9","2","6","0","0","0","0.5","stim/N000.jpg","65","76","0.816666674","3","1","4","","2","2","3","3","2","2","3","3","0","1","1","3","1","5","1","5","5","1","0","0","0","5","1","2","4","4","0","3","5","5","3","1","4","0","5","2","1","3","0","5","2","3","4","5","6","1","5","5","5","5","6","4","5","6","5","3","2","3","4","2","3","agree","null","","","","","","","","stim/H110.jpg","null","","",""
"html-keyboard-response","115","2103635","0.0-11.0-1.40","smf47cdyeys378j","0","1","21","09/1999","Single","English","French, Italian, Spanish","Female","White or Caucasian","No","CEGEP, non-university college, trade school or equivalent","Yes, Undergraduate studies","N/A","N/A","N/A","9","2","6","0","0","0","0.5","stim/N000.jpg","65","76","0.816666674","3","1","4","","2","2","3","3","2","2","3","3","0","1","1","3","1","5","1","5","5","1","0","0","0","5","1","2","4","4","0","3","5","5","3","1","4","0","5","2","1","3","0","5","2","3","4","5","6","1","5","5","5","5","6","4","5","6","5","3","2","3","4","2","3","agree","546.7750000096858","","","","","","","","<div style=""font-size:60px;"">?</div>","76","41","1","0.5"
"image-keyboard-response","116","2104641","0.0-11.0-0.41","smf47cdyeys378j","0","1","21","09/1999","Single","English","French, Italian, Spanish","Female","White or Caucasian","No","CEGEP, non-university college, trade school or equivalent","Yes, Undergraduate studies","N/A","N/A","N/A","9","2","6","0","0","0","0.5","stim/N000.jpg","65","76","0.816666674","3","1","4","","2","2","3","3","2","2","3","3","0","1","1","3","1","5","1","5","5","1","0","0","0","5","1","2","4","4","0","3","5","5","3","1","4","0","5","2","1","3","0","5","2","3","4","5","6","1","5","5","5","5","6","4","5","6","5","3","2","3","4","2","3","agree","null","","","","","","","","stim/H200.jpg","null","","",""
"html-keyboard-response","117","2105056","0.0-11.0-1.41","smf47cdyeys378j","0","1","21","09/1999","Single","English","French, Italian, Spanish","Female","White or Caucasian","No","CEGEP, non-university college, trade school or equivalent","Yes, Undergraduate studies","N/A","N/A","N/A","9","2","6","0","0","0","0.5","stim/N000.jpg","65","76","0.816666674","3","1","4","","2","2","3","3","2","2","3","3","0","1","1","3","1","5","1","5","5","1","0","0","0","5","1","2","4","4","0","3","5","5","3","1","4","0","5","2","1","3","0","5","2","3","4","5","6","1","5","5","5","5","6","4","5","6","5","3","2","3","4","2","3","agree","413.6299999956973","","","","","","","","<div style=""font-size:60px;"">?</div>","65","42","1","0.5"
"image-keyboard-response","118","2106067","0.0-11.0-0.42","smf47cdyeys378j","0","1","21","09/1999","Single","English","French, Italian, Spanish","Female","White or Caucasian","No","CEGEP, non-university college, trade school or equivalent","Yes, Undergraduate studies","N/A","N/A","N/A","9","2","6","0","0","0","0.5","stim/N000.jpg","65","76","0.816666674","3","1","4","","2","2","3","3","2","2","3","3","0","1","1","3","1","5","1","5","5","1","0","0","0","5","1","2","4","4","0","3","5","5","3","1","4","0","5","2","1","3","0","5","2","3","4","5","6","1","5","5","5","5","6","4","5","6","5","3","2","3","4","2","3","agree","null","","","","","","","","stim/H280.jpg","null","","",""
"html-keyboard-response","119","2106481","0.0-11.0-1.42","smf47cdyeys378j","0","1","21","09/1999","Single","English","French, Italian, Spanish","Female","White or Caucasian","No","CEGEP, non-university college, trade school or equivalent","Yes, Undergraduate studies","N/A","N/A","N/A","9","2","6","0","0","0","0.5","stim/N000.jpg","65","76","0.816666674","3","1","4","","2","2","3","3","2","2","3","3","0","1","1","3","1","5","1","5","5","1","0","0","0","5","1","2","4","4","0","3","5","5","3","1","4","0","5","2","1","3","0","5","2","3","4","5","6","1","5","5","5","5","6","4","5","6","5","3","2","3","4","2","3","agree","412.71499999868684","","","","","","","","<div style=""font-size:60px;"">?</div>","65","43","1","0.5"
"image-keyboard-response","120","2107489","0.0-11.0-0.43","smf47cdyeys378j","0","1","21","09/1999","Single","English","French, Italian, Spanish","Female","White or Caucasian","No","CEGEP, non-university college, trade school or equivalent","Yes, Undergraduate studies","N/A","N/A","N/A","9","2","6","0","0","0","0.5","stim/N000.jpg","65","76","0.816666674","3","1","4","","2","2","3","3","2","2","3","3","0","1","1","3","1","5","1","5","5","1","0","0","0","5","1","2","4","4","0","3","5","5","3","1","4","0","5","2","1","3","0","5","2","3","4","5","6","1","5","5","5","5","6","4","5","6","5","3","2","3","4","2","3","agree","null","","","","","","","","stim/H090.jpg","null","","",""
"html-keyboard-response","121","2108382","0.0-11.0-1.43","smf47cdyeys378j","0","1","21","09/1999","Single","English","French, Italian, Spanish","Female","White or Caucasian","No","CEGEP, non-university college, trade school or equivalent","Yes, Undergraduate studies","N/A","N/A","N/A","9","2","6","0","0","0","0.5","stim/N000.jpg","65","76","0.816666674","3","1","4","","2","2","3","3","2","2","3","3","0","1","1","3","1","5","1","5","5","1","0","0","0","5","1","2","4","4","0","3","5","5","3","1","4","0","5","2","1","3","0","5","2","3","4","5","6","1","5","5","5","5","6","4","5","6","5","3","2","3","4","2","3","agree","892.095000002766","","","","","","","","<div style=""font-size:60px;"">?</div>","65","44","1","0.5"
"image-keyboard-response","122","2109385","0.0-11.0-0.44","smf47cdyeys378j","0","1","21","09/1999","Single","English","French, Italian, Spanish","Female","White or Caucasian","No","CEGEP, non-university college, trade school or equivalent","Yes, Undergraduate studies","N/A","N/A","N/A","9","2","6","0","0","0","0.5","stim/N000.jpg","65","76","0.816666674","3","1","4","","2","2","3","3","2","2","3","3","0","1","1","3","1","5","1","5","5","1","0","0","0","5","1","2","4","4","0","3","5","5","3","1","4","0","5","2","1","3","0","5","2","3","4","5","6","1","5","5","5","5","6","4","5","6","5","3","2","3","4","2","3","agree","null","","","","","","","","stim/T220.jpg","null","","",""
"html-keyboard-response","123","2109783","0.0-11.0-1.44","smf47cdyeys378j","0","1","21","09/1999","Single","English","French, Italian, Spanish","Female","White or Caucasian","No","CEGEP, non-university college, trade school or equivalent","Yes, Undergraduate studies","N/A","N/A","N/A","9","2","6","0","0","0","0.5","stim/N000.jpg","65","76","0.816666674","3","1","4","","2","2","3","3","2","2","3","3","0","1","1","3","1","5","1","5","5","1","0","0","0","5","1","2","4","4","0","3","5","5","3","1","4","0","5","2","1","3","0","5","2","3","4","5","6","1","5","5","5","5","6","4","5","6","5","3","2","3","4","2","3","agree","396.4949999935925","","","","","","","","<div style=""font-size:60px;"">?</div>","76","45","1","0.5"
"image-keyboard-response","124","2110789","0.0-11.0-0.45","smf47cdyeys378j","0","1","21","09/1999","Single","English","French, Italian, Spanish","Female","White or Caucasian","No","CEGEP, non-university college, trade school or equivalent","Yes, Undergraduate studies","N/A","N/A","N/A","9","2","6","0","0","0","0.5","stim/N000.jpg","65","76","0.816666674","3","1","4","","2","2","3","3","2","2","3","3","0","1","1","3","1","5","1","5","5","1","0","0","0","5","1","2","4","4","0","3","5","5","3","1","4","0","5","2","1","3","0","5","2","3","4","5","6","1","5","5","5","5","6","4","5","6","5","3","2","3","4","2","3","agree","null","","","","","","","","stim/T090.jpg","null","","",""
"html-keyboard-response","125","2111161","0.0-11.0-1.45","smf47cdyeys378j","0","1","21","09/1999","Single","English","French, Italian, Spanish","Female","White or Caucasian","No","CEGEP, non-university college, trade school or equivalent","Yes, Undergraduate studies","N/A","N/A","N/A","9","2","6","0","0","0","0.5","stim/N000.jpg","65","76","0.816666674","3","1","4","","2","2","3","3","2","2","3","3","0","1","1","3","1","5","1","5","5","1","0","0","0","5","1","2","4","4","0","3","5","5","3","1","4","0","5","2","1","3","0","5","2","3","4","5","6","1","5","5","5","5","6","4","5","6","5","3","2","3","4","2","3","agree","370.80999999307096","","","","","","","","<div style=""font-size:60px;"">?</div>","76","46","1","0.5"
"image-keyboard-response","126","2112170","0.0-11.0-0.46","smf47cdyeys378j","0","1","21","09/1999","Single","English","French, Italian, Spanish","Female","White or Caucasian","No","CEGEP, non-university college, trade school or equivalent","Yes, Undergraduate studies","N/A","N/A","N/A","9","2","6","0","0","0","0.5","stim/N000.jpg","65","76","0.816666674","3","1","4","","2","2","3","3","2","2","3","3","0","1","1","3","1","5","1","5","5","1","0","0","0","5","1","2","4","4","0","3","5","5","3","1","4","0","5","2","1","3","0","5","2","3","4","5","6","1","5","5","5","5","6","4","5","6","5","3","2","3","4","2","3","agree","null","","","","","","","","stim/T130.jpg","null","","",""
"html-keyboard-response","127","2112568","0.0-11.0-1.46","smf47cdyeys378j","0","1","21","09/1999","Single","English","French, Italian, Spanish","Female","White or Caucasian","No","CEGEP, non-university college, trade school or equivalent","Yes, Undergraduate studies","N/A","N/A","N/A","9","2","6","0","0","0","0.5","stim/N000.jpg","65","76","0.816666674","3","1","4","","2","2","3","3","2","2","3","3","0","1","1","3","1","5","1","5","5","1","0","0","0","5","1","2","4","4","0","3","5","5","3","1","4","0","5","2","1","3","0","5","2","3","4","5","6","1","5","5","5","5","6","4","5","6","5","3","2","3","4","2","3","agree","396.77999999560416","","","","","","","","<div style=""font-size:60px;"">?</div>","76","47","1","0.5"
"image-keyboard-response","128","2113577","0.0-11.0-0.47","smf47cdyeys378j","0","1","21","09/1999","Single","English","French, Italian, Spanish","Female","White or Caucasian","No","CEGEP, non-university college, trade school or equivalent","Yes, Undergraduate studies","N/A","N/A","N/A","9","2","6","0","0","0","0.5","stim/N000.jpg","65","76","0.816666674","3","1","4","","2","2","3","3","2","2","3","3","0","1","1","3","1","5","1","5","5","1","0","0","0","5","1","2","4","4","0","3","5","5","3","1","4","0","5","2","1","3","0","5","2","3","4","5","6","1","5","5","5","5","6","4","5","6","5","3","2","3","4","2","3","agree","null","","","","","","","","stim/H020.jpg","null","","",""
"html-keyboard-response","129","2113969","0.0-11.0-1.47","smf47cdyeys378j","0","1","21","09/1999","Single","English","French, Italian, Spanish","Female","White or Caucasian","No","CEGEP, non-university college, trade school or equivalent","Yes, Undergraduate studies","N/A","N/A","N/A","9","2","6","0","0","0","0.5","stim/N000.jpg","65","76","0.816666674","3","1","4","","2","2","3","3","2","2","3","3","0","1","1","3","1","5","1","5","5","1","0","0","0","5","1","2","4","4","0","3","5","5","3","1","4","0","5","2","1","3","0","5","2","3","4","5","6","1","5","5","5","5","6","4","5","6","5","3","2","3","4","2","3","agree","391.50500000687316","","","","","","","","<div style=""font-size:60px;"">?</div>","76","48","1","0.5"
"image-keyboard-response","130","2114980","0.0-11.0-0.48","smf47cdyeys378j","0","1","21","09/1999","Single","English","French, Italian, Spanish","Female","White or Caucasian","No","CEGEP, non-university college, trade school or equivalent","Yes, Undergraduate studies","N/A","N/A","N/A","9","2","6","0","0","0","0.5","stim/N000.jpg","65","76","0.816666674","3","1","4","","2","2","3","3","2","2","3","3","0","1","1","3","1","5","1","5","5","1","0","0","0","5","1","2","4","4","0","3","5","5","3","1","4","0","5","2","1","3","0","5","2","3","4","5","6","1","5","5","5","5","6","4","5","6","5","3","2","3","4","2","3","agree","null","","","","","","","","stim/T230.jpg","null","","",""
"html-keyboard-response","131","2115369","0.0-11.0-1.48","smf47cdyeys378j","0","1","21","09/1999","Single","English","French, Italian, Spanish","Female","White or Caucasian","No","CEGEP, non-university college, trade school or equivalent","Yes, Undergraduate studies","N/A","N/A","N/A","9","2","6","0","0","0","0.5","stim/N000.jpg","65","76","0.816666674","3","1","4","","2","2","3","3","2","2","3","3","0","1","1","3","1","5","1","5","5","1","0","0","0","5","1","2","4","4","0","3","5","5","3","1","4","0","5","2","1","3","0","5","2","3","4","5","6","1","5","5","5","5","6","4","5","6","5","3","2","3","4","2","3","agree","387.7000000067055","","","","","","","","<div style=""font-size:60px;"">?</div>","76","49","1","0.5"
"image-keyboard-response","132","2116380","0.0-11.0-0.49","smf47cdyeys378j","0","1","21","09/1999","Single","English","French, Italian, Spanish","Female","White or Caucasian","No","CEGEP, non-university college, trade school or equivalent","Yes, Undergraduate studies","N/A","N/A","N/A","9","2","6","0","0","0","0.5","stim/N000.jpg","65","76","0.816666674","3","1","4","","2","2","3","3","2","2","3","3","0","1","1","3","1","5","1","5","5","1","0","0","0","5","1","2","4","4","0","3","5","5","3","1","4","0","5","2","1","3","0","5","2","3","4","5","6","1","5","5","5","5","6","4","5","6","5","3","2","3","4","2","3","agree","null","","","","","","","","stim/T300.jpg","null","","",""
"html-keyboard-response","133","2116867","0.0-11.0-1.49","smf47cdyeys378j","0","1","21","09/1999","Single","English","French, Italian, Spanish","Female","White or Caucasian","No","CEGEP, non-university college, trade school or equivalent","Yes, Undergraduate studies","N/A","N/A","N/A","9","2","6","0","0","0","0.5","stim/N000.jpg","65","76","0.816666674","3","1","4","","2","2","3","3","2","2","3","3","0","1","1","3","1","5","1","5","5","1","0","0","0","5","1","2","4","4","0","3","5","5","3","1","4","0","5","2","1","3","0","5","2","3","4","5","6","1","5","5","5","5","6","4","5","6","5","3","2","3","4","2","3","agree","486.1200000012759","","","","","","","","<div style=""font-size:60px;"">?</div>","76","50","1","0.5"
"html-keyboard-response","134","2267610","0.0-12.0","smf47cdyeys378j","0","1","21","09/1999","Single","English","French, Italian, Spanish","Female","White or Caucasian","No","CEGEP, non-university college, trade school or equivalent","Yes, Undergraduate studies","N/A","N/A","N/A","9","2","6","0","0","0","0.5","stim/N000.jpg","65","76","0.816666674","3","1","4","","2","2","3","3","2","2","3","3","0","1","1","3","1","5","1","5","5","1","0","0","0","5","1","2","4","4","0","3","5","5","3","1","4","0","5","2","1","3","0","5","2","3","4","5","6","1","5","5","5","5","6","4","5","6","5","3","2","3","4","2","3","agree","150233.60999999568","","","","","","","","<p>Block 2</p><p>Press SPACE to continue.</p>","32","","",""
"image-keyboard-response","135","2269120","0.0-13.0-0.0","smf47cdyeys378j","0","1","21","09/1999","Single","English","French, Italian, Spanish","Female","White or Caucasian","No","CEGEP, non-university college, trade school or equivalent","Yes, Undergraduate studies","N/A","N/A","N/A","9","2","6","0","0","0","0.5","stim/N000.jpg","65","76","0.816666674","3","1","4","","2","2","3","3","2","2","3","3","0","1","1","3","1","5","1","5","5","1","0","0","0","5","1","2","4","4","0","3","5","5","3","1","4","0","5","2","1","3","0","5","2","3","4","5","6","1","5","5","5","5","6","4","5","6","5","3","2","3","4","2","3","agree","null","","","","","","","","stim/H090.jpg","null","","",""
"html-keyboard-response","136","2269588","0.0-13.0-1.0","smf47cdyeys378j","0","1","21","09/1999","Single","English","French, Italian, Spanish","Female","White or Caucasian","No","CEGEP, non-university college, trade school or equivalent","Yes, Undergraduate studies","N/A","N/A","N/A","9","2","6","0","0","0","0.5","stim/N000.jpg","65","76","0.816666674","3","1","4","","2","2","3","3","2","2","3","3","0","1","1","3","1","5","1","5","5","1","0","0","0","5","1","2","4","4","0","3","5","5","3","1","4","0","5","2","1","3","0","5","2","3","4","5","6","1","5","5","5","5","6","4","5","6","5","3","2","3","4","2","3","agree","466.90500000840984","","","","","","","","<div style=""font-size:60px;"">?</div>","65","1","2","0.5"
"image-keyboard-response","137","2270599","0.0-13.0-0.1","smf47cdyeys378j","0","1","21","09/1999","Single","English","French, Italian, Spanish","Female","White or Caucasian","No","CEGEP, non-university college, trade school or equivalent","Yes, Undergraduate studies","N/A","N/A","N/A","9","2","6","0","0","0","0.5","stim/N000.jpg","65","76","0.816666674","3","1","4","","2","2","3","3","2","2","3","3","0","1","1","3","1","5","1","5","5","1","0","0","0","5","1","2","4","4","0","3","5","5","3","1","4","0","5","2","1","3","0","5","2","3","4","5","6","1","5","5","5","5","6","4","5","6","5","3","2","3","4","2","3","agree","null","","","","","","","","stim/T280.jpg","null","","",""
