"trial_type","trial_index","time_elapsed","internal_node_id","subject","condition","ID","age","dob","marital","natlang","olang","gender","ethnicity","mental_check","educ_l","educ_c","mental","mentdrug","mentpos","sesparent","sesstudent","sesladder","educ_hs","educ_ce","s1self","chosenbody","s1selfjudge","s2selfjudge","s2self","sspc_01","sspc_02","pas_01","pas_02","pas_03","pas_04","pas_05","pas_06","pas_07","pas_08","pas_09","pas_10","pas_11","pas_12","pas_13","pas_14","contact_01","contact_02","contact_03","contact_04","contact_05","contact_06","contact_07","contact_08","contact_09","idnd_01","idnd_02","idnd_03","idnd_04","idnd_05","idnd_06","idnd_07","idnd_08","catch_01","adig_01","adig_02","adig_03","plcs_01","plcs_02","plcs_03","plcs_04","plcs_05","plcs_06","plcs_07","plcs_08","plcs_09","plcs_10","plcs_11","plcs_12","catch_02","wwwp_01","wwwp_02","wwwp_03","wwwp_04","wwwp_05","wwwp_06","wwwp_07","wwwp_08","wwwp_09","lsns_fam_1","lsns_fam_2","lsns_fam_3","lsns_fri_1","lsns_fri_2","lsns_fri_3","debrief","rt","url","success","view_history","responses","question_order","final_value","start_value","stimulus","key_press","trial","block","freq"
"pavlovia","0","9","0.0-0.0","9t26mxhx2q5utz1","1","61118884c77ef27fa0609dc4","25","10/1995","Married","English","French, Hebrew","Male","White or Caucasian","No","Undergraduate degree","No, currently not in school","N/A","N/A","N/A","9","7","6","3","1","0.766666636","stim/H160.jpg","76","76","0.74999999","3","2","3","","2","3","3","0","1","4","3","3","0","2","0","4","6","6","1","6","6","1","10","4","6","6","1","6","5","5","1","5","5","5","1","1","3","1","0","2","3","4","2","5","2","2","4","3","4","1","5","0","4","1","1","0","2","5","4","5","5","5","4","5","5","agree","","","","","","","","","","","","",""
"external-html","1","3161","0.0-1.0","9t26mxhx2q5utz1","1","61118884c77ef27fa0609dc4","25","10/1995","Married","English","French, Hebrew","Male","White or Caucasian","No","Undergraduate degree","No, currently not in school","N/A","N/A","N/A","9","7","6","3","1","0.766666636","stim/H160.jpg","76","76","0.74999999","3","2","3","","2","3","3","0","1","4","3","3","0","2","0","4","6","6","1","6","6","1","10","4","6","6","1","6","5","5","1","5","5","5","1","1","3","1","0","2","3","4","2","5","2","2","4","3","4","1","5","0","4","1","1","0","2","5","4","5","5","5","4","5","5","agree","3021.7000000476837","sub/html/consent.html","","","","","","","","","","",""
"fullscreen","2","5603","0.0-2.0","9t26mxhx2q5utz1","1","61118884c77ef27fa0609dc4","25","10/1995","Married","English","French, Hebrew","Male","White or Caucasian","No","Undergraduate degree","No, currently not in school","N/A","N/A","N/A","9","7","6","3","1","0.766666636","stim/H160.jpg","76","76","0.74999999","3","2","3","","2","3","3","0","1","4","3","3","0","2","0","4","6","6","1","6","6","1","10","4","6","6","1","6","5","5","1","5","5","5","1","1","3","1","0","2","3","4","2","5","2","2","4","3","4","1","5","0","4","1","1","0","2","5","4","5","5","5","4","5","5","agree","","","true","","","","","","","","","",""
"instructions","3","7547","0.0-3.0","9t26mxhx2q5utz1","1","61118884c77ef27fa0609dc4","25","10/1995","Married","English","French, Hebrew","Male","White or Caucasian","No","Undergraduate degree","No, currently not in school","N/A","N/A","N/A","9","7","6","3","1","0.766666636","stim/H160.jpg","76","76","0.74999999","3","2","3","","2","3","3","0","1","4","3","3","0","2","0","4","6","6","1","6","6","1","10","4","6","6","1","6","5","5","1","5","5","5","1","1","3","1","0","2","3","4","2","5","2","2","4","3","4","1","5","0","4","1","1","0","2","5","4","5","5","5","4","5","5","agree","1943","","","[{""page_index"":0,""viewing_time"":1010.1000000238419},{""page_index"":1,""viewing_time"":932.3000000715256}]","","","","","","","","",""
"survey-text","4","49580","0.0-4.0-0.0","9t26mxhx2q5utz1","1","61118884c77ef27fa0609dc4","25","10/1995","Married","English","French, Hebrew","Male","White or Caucasian","No","Undergraduate degree","No, currently not in school","N/A","N/A","N/A","9","7","6","3","1","0.766666636","stim/H160.jpg","76","76","0.74999999","3","2","3","","2","3","3","0","1","4","3","3","0","2","0","4","6","6","1","6","6","1","10","4","6","6","1","6","5","5","1","5","5","5","1","1","3","1","0","2","3","4","2","5","2","2","4","3","4","1","5","0","4","1","1","0","2","5","4","5","5","5","4","5","5","agree","42016.09999990463","","","","{""ID"":""61118884c77ef27fa0609dc4"",""age"":""25"",""dob"":""10/1995"",""marital"":""Married"",""natlang"":""English"",""olang"":""French, Hebrew""}","","","","","","","",""
"survey-multi-choice","5","64543","0.0-4.0-1.0","9t26mxhx2q5utz1","1","61118884c77ef27fa0609dc4","25","10/1995","Married","English","French, Hebrew","Male","White or Caucasian","No","Undergraduate degree","No, currently not in school","N/A","N/A","N/A","9","7","6","3","1","0.766666636","stim/H160.jpg","76","76","0.74999999","3","2","3","","2","3","3","0","1","4","3","3","0","2","0","4","6","6","1","6","6","1","10","4","6","6","1","6","5","5","1","5","5","5","1","1","3","1","0","2","3","4","2","5","2","2","4","3","4","1","5","0","4","1","1","0","2","5","4","5","5","5","4","5","5","agree","14958.300000071526","","","","{""gender"":""Male"",""ethnicity"":""White or Caucasian"",""mental_check"":""No"",""educ_l"":""Undergraduate degree"",""educ_c"":""No, currently not in school""}","[0,1,2,3,4]","","","","","","",""
"survey-text","6","74633","0.0-4.0-2.0","9t26mxhx2q5utz1","1","61118884c77ef27fa0609dc4","25","10/1995","Married","English","French, Hebrew","Male","White or Caucasian","No","Undergraduate degree","No, currently not in school","N/A","N/A","N/A","9","7","6","3","1","0.766666636","stim/H160.jpg","76","76","0.74999999","3","2","3","","2","3","3","0","1","4","3","3","0","2","0","4","6","6","1","6","6","1","10","4","6","6","1","6","5","5","1","5","5","5","1","1","3","1","0","2","3","4","2","5","2","2","4","3","4","1","5","0","4","1","1","0","2","5","4","5","5","5","4","5","5","agree","10083.399999976158","","","","{""mental"":""N/A"",""mentdrug"":""N/A"",""mentpos"":""N/A""}","","","","","","","",""
"survey-likert","7","82286","0.0-4.0-3.0","9t26mxhx2q5utz1","1","61118884c77ef27fa0609dc4","25","10/1995","Married","English","French, Hebrew","Male","White or Caucasian","No","Undergraduate degree","No, currently not in school","N/A","N/A","N/A","9","7","6","3","1","0.766666636","stim/H160.jpg","76","76","0.74999999","3","2","3","","2","3","3","0","1","4","3","3","0","2","0","4","6","6","1","6","6","1","10","4","6","6","1","6","5","5","1","5","5","5","1","1","3","1","0","2","3","4","2","5","2","2","4","3","4","1","5","0","4","1","1","0","2","5","4","5","5","5","4","5","5","agree","7648","","","","{""sesparent"":9,""sesstudent"":7,""sesladder"":6}","[0,1,2]","","","","","","",""
"survey-likert","8","90013","0.0-4.0-4.0","9t26mxhx2q5utz1","1","61118884c77ef27fa0609dc4","25","10/1995","Married","English","French, Hebrew","Male","White or Caucasian","No","Undergraduate degree","No, currently not in school","N/A","N/A","N/A","9","7","6","3","1","0.766666636","stim/H160.jpg","76","76","0.74999999","3","2","3","","2","3","3","0","1","4","3","3","0","2","0","4","6","6","1","6","6","1","10","4","6","6","1","6","5","5","1","5","5","5","1","1","3","1","0","2","3","4","2","5","2","2","4","3","4","1","5","0","4","1","1","0","2","5","4","5","5","5","4","5","5","agree","7721.900000095367","","","","{""educ_hs"":3,""educ_ce"":1}","[0,1]","","","","","","",""
"reconstruction","9","115066","0.0-5.0","9t26mxhx2q5utz1","1","61118884c77ef27fa0609dc4","25","10/1995","Married","English","French, Hebrew","Male","White or Caucasian","No","Undergraduate degree","No, currently not in school","N/A","N/A","N/A","9","7","6","3","1","0.766666636","stim/H160.jpg","76","76","0.74999999","3","2","3","","2","3","3","0","1","4","3","3","0","2","0","4","6","6","1","6","6","1","10","4","6","6","1","6","5","5","1","5","5","5","1","1","3","1","0","2","3","4","2","5","2","2","4","3","4","1","5","0","4","1","1","0","2","5","4","5","5","5","4","5","5","agree","25049.5","","","","","","0.766666636","0.5","","","","",""
"image-keyboard-response","10","119311","0.0-6.0","9t26mxhx2q5utz1","1","61118884c77ef27fa0609dc4","25","10/1995","Married","English","French, Hebrew","Male","White or Caucasian","No","Undergraduate degree","No, currently not in school","N/A","N/A","N/A","9","7","6","3","1","0.766666636","stim/H160.jpg","76","76","0.74999999","3","2","3","","2","3","3","0","1","4","3","3","0","2","0","4","6","6","1","6","6","1","10","4","6","6","1","6","5","5","1","5","5","5","1","1","3","1","0","2","3","4","2","5","2","2","4","3","4","1","5","0","4","1","1","0","2","5","4","5","5","5","4","5","5","agree","4241.5","","","","","","","","stim/H160.jpg","76","","",""
"instructions","11","146870","0.0-7.0","9t26mxhx2q5utz1","1","61118884c77ef27fa0609dc4","25","10/1995","Married","English","French, Hebrew","Male","White or Caucasian","No","Undergraduate degree","No, currently not in school","N/A","N/A","N/A","9","7","6","3","1","0.766666636","stim/H160.jpg","76","76","0.74999999","3","2","3","","2","3","3","0","1","4","3","3","0","2","0","4","6","6","1","6","6","1","10","4","6","6","1","6","5","5","1","5","5","5","1","1","3","1","0","2","3","4","2","5","2","2","4","3","4","1","5","0","4","1","1","0","2","5","4","5","5","5","4","5","5","agree","27558.899999976158","","","[{""page_index"":0,""viewing_time"":1660.5},{""page_index"":1,""viewing_time"":3602.6999999284744},{""page_index"":2,""viewing_time"":6803.700000047684},{""page_index"":3,""viewing_time"":7594.199999928474},{""page_index"":4,""viewing_time"":2374.100000023842},{""page_index"":5,""viewing_time"":4656.899999976158},{""page_index"":6,""viewing_time"":866.3000000715256}]","","","","","","","","",""
"image-keyboard-response","12","147378","0.0-8.0-0.0","9t26mxhx2q5utz1","1","61118884c77ef27fa0609dc4","25","10/1995","Married","English","French, Hebrew","Male","White or Caucasian","No","Undergraduate degree","No, currently not in school","N/A","N/A","N/A","9","7","6","3","1","0.766666636","stim/H160.jpg","76","76","0.74999999","3","2","3","","2","3","3","0","1","4","3","3","0","2","0","4","6","6","1","6","6","1","10","4","6","6","1","6","5","5","1","5","5","5","1","1","3","1","0","2","3","4","2","5","2","2","4","3","4","1","5","0","4","1","1","0","2","5","4","5","5","5","4","5","5","agree","null","","","","","","","","stim/H230.jpg","null","","",""
"html-keyboard-response","13","148721","0.0-8.0-1.0","9t26mxhx2q5utz1","1","61118884c77ef27fa0609dc4","25","10/1995","Married","English","French, Hebrew","Male","White or Caucasian","No","Undergraduate degree","No, currently not in school","N/A","N/A","N/A","9","7","6","3","1","0.766666636","stim/H160.jpg","76","76","0.74999999","3","2","3","","2","3","3","0","1","4","3","3","0","2","0","4","6","6","1","6","6","1","10","4","6","6","1","6","5","5","1","5","5","5","1","1","3","1","0","2","3","4","2","5","2","2","4","3","4","1","5","0","4","1","1","0","2","5","4","5","5","5","4","5","5","agree","1341.6999999284744","","","","","","","","<div style=""font-size:60px;"">?</div>","65","1","Practice","0.5"
"image-keyboard-response","14","149737","0.0-8.0-0.1","9t26mxhx2q5utz1","1","61118884c77ef27fa0609dc4","25","10/1995","Married","English","French, Hebrew","Male","White or Caucasian","No","Undergraduate degree","No, currently not in school","N/A","N/A","N/A","9","7","6","3","1","0.766666636","stim/H160.jpg","76","76","0.74999999","3","2","3","","2","3","3","0","1","4","3","3","0","2","0","4","6","6","1","6","6","1","10","4","6","6","1","6","5","5","1","5","5","5","1","1","3","1","0","2","3","4","2","5","2","2","4","3","4","1","5","0","4","1","1","0","2","5","4","5","5","5","4","5","5","agree","null","","","","","","","","stim/T230.jpg","null","","",""
"html-keyboard-response","15","150092","0.0-8.0-1.1","9t26mxhx2q5utz1","1","61118884c77ef27fa0609dc4","25","10/1995","Married","English","French, Hebrew","Male","White or Caucasian","No","Undergraduate degree","No, currently not in school","N/A","N/A","N/A","9","7","6","3","1","0.766666636","stim/H160.jpg","76","76","0.74999999","3","2","3","","2","3","3","0","1","4","3","3","0","2","0","4","6","6","1","6","6","1","10","4","6","6","1","6","5","5","1","5","5","5","1","1","3","1","0","2","3","4","2","5","2","2","4","3","4","1","5","0","4","1","1","0","2","5","4","5","5","5","4","5","5","agree","354","","","","","","","","<div style=""font-size:60px;"">?</div>","76","2","Practice","0.5"
"image-keyboard-response","16","151109","0.0-8.0-0.2","9t26mxhx2q5utz1","1","61118884c77ef27fa0609dc4","25","10/1995","Married","English","French, Hebrew","Male","White or Caucasian","No","Undergraduate degree","No, currently not in school","N/A","N/A","N/A","9","7","6","3","1","0.766666636","stim/H160.jpg","76","76","0.74999999","3","2","3","","2","3","3","0","1","4","3","3","0","2","0","4","6","6","1","6","6","1","10","4","6","6","1","6","5","5","1","5","5","5","1","1","3","1","0","2","3","4","2","5","2","2","4","3","4","1","5","0","4","1","1","0","2","5","4","5","5","5","4","5","5","agree","null","","","","","","","","stim/T170.jpg","null","","",""
"html-keyboard-response","17","151443","0.0-8.0-1.2","9t26mxhx2q5utz1","1","61118884c77ef27fa0609dc4","25","10/1995","Married","English","French, Hebrew","Male","White or Caucasian","No","Undergraduate degree","No, currently not in school","N/A","N/A","N/A","9","7","6","3","1","0.766666636","stim/H160.jpg","76","76","0.74999999","3","2","3","","2","3","3","0","1","4","3","3","0","2","0","4","6","6","1","6","6","1","10","4","6","6","1","6","5","5","1","5","5","5","1","1","3","1","0","2","3","4","2","5","2","2","4","3","4","1","5","0","4","1","1","0","2","5","4","5","5","5","4","5","5","agree","333.10000002384186","","","","","","","","<div style=""font-size:60px;"">?</div>","76","3","Practice","0.5"
"image-keyboard-response","18","152450","0.0-8.0-0.3","9t26mxhx2q5utz1","1","61118884c77ef27fa0609dc4","25","10/1995","Married","English","French, Hebrew","Male","White or Caucasian","No","Undergraduate degree","No, currently not in school","N/A","N/A","N/A","9","7","6","3","1","0.766666636","stim/H160.jpg","76","76","0.74999999","3","2","3","","2","3","3","0","1","4","3","3","0","2","0","4","6","6","1","6","6","1","10","4","6","6","1","6","5","5","1","5","5","5","1","1","3","1","0","2","3","4","2","5","2","2","4","3","4","1","5","0","4","1","1","0","2","5","4","5","5","5","4","5","5","agree","null","","","","","","","","stim/H070.jpg","null","","",""
"html-keyboard-response","19","152841","0.0-8.0-1.3","9t26mxhx2q5utz1","1","61118884c77ef27fa0609dc4","25","10/1995","Married","English","French, Hebrew","Male","White or Caucasian","No","Undergraduate degree","No, currently not in school","N/A","N/A","N/A","9","7","6","3","1","0.766666636","stim/H160.jpg","76","76","0.74999999","3","2","3","","2","3","3","0","1","4","3","3","0","2","0","4","6","6","1","6","6","1","10","4","6","6","1","6","5","5","1","5","5","5","1","1","3","1","0","2","3","4","2","5","2","2","4","3","4","1","5","0","4","1","1","0","2","5","4","5","5","5","4","5","5","agree","389.39999997615814","","","","","","","","<div style=""font-size:60px;"">?</div>","65","4","Practice","0.5"
"image-keyboard-response","20","153856","0.0-8.0-0.4","9t26mxhx2q5utz1","1","61118884c77ef27fa0609dc4","25","10/1995","Married","English","French, Hebrew","Male","White or Caucasian","No","Undergraduate degree","No, currently not in school","N/A","N/A","N/A","9","7","6","3","1","0.766666636","stim/H160.jpg","76","76","0.74999999","3","2","3","","2","3","3","0","1","4","3","3","0","2","0","4","6","6","1","6","6","1","10","4","6","6","1","6","5","5","1","5","5","5","1","1","3","1","0","2","3","4","2","5","2","2","4","3","4","1","5","0","4","1","1","0","2","5","4","5","5","5","4","5","5","agree","null","","","","","","","","stim/T110.jpg","null","","",""
"html-keyboard-response","21","154602","0.0-8.0-1.4","9t26mxhx2q5utz1","1","61118884c77ef27fa0609dc4","25","10/1995","Married","English","French, Hebrew","Male","White or Caucasian","No","Undergraduate degree","No, currently not in school","N/A","N/A","N/A","9","7","6","3","1","0.766666636","stim/H160.jpg","76","76","0.74999999","3","2","3","","2","3","3","0","1","4","3","3","0","2","0","4","6","6","1","6","6","1","10","4","6","6","1","6","5","5","1","5","5","5","1","1","3","1","0","2","3","4","2","5","2","2","4","3","4","1","5","0","4","1","1","0","2","5","4","5","5","5","4","5","5","agree","745.5","","","","","","","","<div style=""font-size:60px;"">?</div>","65","5","Practice","0.5"
"image-keyboard-response","22","155608","0.0-8.0-0.5","9t26mxhx2q5utz1","1","61118884c77ef27fa0609dc4","25","10/1995","Married","English","French, Hebrew","Male","White or Caucasian","No","Undergraduate degree","No, currently not in school","N/A","N/A","N/A","9","7","6","3","1","0.766666636","stim/H160.jpg","76","76","0.74999999","3","2","3","","2","3","3","0","1","4","3","3","0","2","0","4","6","6","1","6","6","1","10","4","6","6","1","6","5","5","1","5","5","5","1","1","3","1","0","2","3","4","2","5","2","2","4","3","4","1","5","0","4","1","1","0","2","5","4","5","5","5","4","5","5","agree","null","","","","","","","","stim/T280.jpg","null","","",""
"html-keyboard-response","23","155922","0.0-8.0-1.5","9t26mxhx2q5utz1","1","61118884c77ef27fa0609dc4","25","10/1995","Married","English","French, Hebrew","Male","White or Caucasian","No","Undergraduate degree","No, currently not in school","N/A","N/A","N/A","9","7","6","3","1","0.766666636","stim/H160.jpg","76","76","0.74999999","3","2","3","","2","3","3","0","1","4","3","3","0","2","0","4","6","6","1","6","6","1","10","4","6","6","1","6","5","5","1","5","5","5","1","1","3","1","0","2","3","4","2","5","2","2","4","3","4","1","5","0","4","1","1","0","2","5","4","5","5","5","4","5","5","agree","312","","","","","","","","<div style=""font-size:60px;"">?</div>","76","6","Practice","0.5"
"image-keyboard-response","24","156923","0.0-8.0-0.6","9t26mxhx2q5utz1","1","61118884c77ef27fa0609dc4","25","10/1995","Married","English","French, Hebrew","Male","White or Caucasian","No","Undergraduate degree","No, currently not in school","N/A","N/A","N/A","9","7","6","3","1","0.766666636","stim/H160.jpg","76","76","0.74999999","3","2","3","","2","3","3","0","1","4","3","3","0","2","0","4","6","6","1","6","6","1","10","4","6","6","1","6","5","5","1","5","5","5","1","1","3","1","0","2","3","4","2","5","2","2","4","3","4","1","5","0","4","1","1","0","2","5","4","5","5","5","4","5","5","agree","null","","","","","","","","stim/H150.jpg","null","","",""
"html-keyboard-response","25","157217","0.0-8.0-1.6","9t26mxhx2q5utz1","1","61118884c77ef27fa0609dc4","25","10/1995","Married","English","French, Hebrew","Male","White or Caucasian","No","Undergraduate degree","No, currently not in school","N/A","N/A","N/A","9","7","6","3","1","0.766666636","stim/H160.jpg","76","76","0.74999999","3","2","3","","2","3","3","0","1","4","3","3","0","2","0","4","6","6","1","6","6","1","10","4","6","6","1","6","5","5","1","5","5","5","1","1","3","1","0","2","3","4","2","5","2","2","4","3","4","1","5","0","4","1","1","0","2","5","4","5","5","5","4","5","5","agree","293","","","","","","","","<div style=""font-size:60px;"">?</div>","65","7","Practice","0.5"
"image-keyboard-response","26","158224","0.0-8.0-0.7","9t26mxhx2q5utz1","1","61118884c77ef27fa0609dc4","25","10/1995","Married","English","French, Hebrew","Male","White or Caucasian","No","Undergraduate degree","No, currently not in school","N/A","N/A","N/A","9","7","6","3","1","0.766666636","stim/H160.jpg","76","76","0.74999999","3","2","3","","2","3","3","0","1","4","3","3","0","2","0","4","6","6","1","6","6","1","10","4","6","6","1","6","5","5","1","5","5","5","1","1","3","1","0","2","3","4","2","5","2","2","4","3","4","1","5","0","4","1","1","0","2","5","4","5","5","5","4","5","5","agree","null","","","","","","","","stim/T120.jpg","null","","",""
"html-keyboard-response","27","158585","0.0-8.0-1.7","9t26mxhx2q5utz1","1","61118884c77ef27fa0609dc4","25","10/1995","Married","English","French, Hebrew","Male","White or Caucasian","No","Undergraduate degree","No, currently not in school","N/A","N/A","N/A","9","7","6","3","1","0.766666636","stim/H160.jpg","76","76","0.74999999","3","2","3","","2","3","3","0","1","4","3","3","0","2","0","4","6","6","1","6","6","1","10","4","6","6","1","6","5","5","1","5","5","5","1","1","3","1","0","2","3","4","2","5","2","2","4","3","4","1","5","0","4","1","1","0","2","5","4","5","5","5","4","5","5","agree","360.6999999284744","","","","","","","","<div style=""font-size:60px;"">?</div>","76","8","Practice","0.5"
"image-keyboard-response","28","159596","0.0-8.0-0.8","9t26mxhx2q5utz1","1","61118884c77ef27fa0609dc4","25","10/1995","Married","English","French, Hebrew","Male","White or Caucasian","No","Undergraduate degree","No, currently not in school","N/A","N/A","N/A","9","7","6","3","1","0.766666636","stim/H160.jpg","76","76","0.74999999","3","2","3","","2","3","3","0","1","4","3","3","0","2","0","4","6","6","1","6","6","1","10","4","6","6","1","6","5","5","1","5","5","5","1","1","3","1","0","2","3","4","2","5","2","2","4","3","4","1","5","0","4","1","1","0","2","5","4","5","5","5","4","5","5","agree","null","","","","","","","","stim/H050.jpg","null","","",""
"html-keyboard-response","29","159882","0.0-8.0-1.8","9t26mxhx2q5utz1","1","61118884c77ef27fa0609dc4","25","10/1995","Married","English","French, Hebrew","Male","White or Caucasian","No","Undergraduate degree","No, currently not in school","N/A","N/A","N/A","9","7","6","3","1","0.766666636","stim/H160.jpg","76","76","0.74999999","3","2","3","","2","3","3","0","1","4","3","3","0","2","0","4","6","6","1","6","6","1","10","4","6","6","1","6","5","5","1","5","5","5","1","1","3","1","0","2","3","4","2","5","2","2","4","3","4","1","5","0","4","1","1","0","2","5","4","5","5","5","4","5","5","agree","286.1999999284744","","","","","","","","<div style=""font-size:60px;"">?</div>","65","9","Practice","0.5"
"image-keyboard-response","30","160910","0.0-8.0-0.9","9t26mxhx2q5utz1","1","61118884c77ef27fa0609dc4","25","10/1995","Married","English","French, Hebrew","Male","White or Caucasian","No","Undergraduate degree","No, currently not in school","N/A","N/A","N/A","9","7","6","3","1","0.766666636","stim/H160.jpg","76","76","0.74999999","3","2","3","","2","3","3","0","1","4","3","3","0","2","0","4","6","6","1","6","6","1","10","4","6","6","1","6","5","5","1","5","5","5","1","1","3","1","0","2","3","4","2","5","2","2","4","3","4","1","5","0","4","1","1","0","2","5","4","5","5","5","4","5","5","agree","null","","","","","","","","stim/H060.jpg","null","","",""
"html-keyboard-response","31","161183","0.0-8.0-1.9","9t26mxhx2q5utz1","1","61118884c77ef27fa0609dc4","25","10/1995","Married","English","French, Hebrew","Male","White or Caucasian","No","Undergraduate degree","No, currently not in school","N/A","N/A","N/A","9","7","6","3","1","0.766666636","stim/H160.jpg","76","76","0.74999999","3","2","3","","2","3","3","0","1","4","3","3","0","2","0","4","6","6","1","6","6","1","10","4","6","6","1","6","5","5","1","5","5","5","1","1","3","1","0","2","3","4","2","5","2","2","4","3","4","1","5","0","4","1","1","0","2","5","4","5","5","5","4","5","5","agree","272","","","","","","","","<div style=""font-size:60px;"">?</div>","65","10","Practice","0.5"
"html-keyboard-response","32","171885","0.0-9.0","9t26mxhx2q5utz1","1","61118884c77ef27fa0609dc4","25","10/1995","Married","English","French, Hebrew","Male","White or Caucasian","No","Undergraduate degree","No, currently not in school","N/A","N/A","N/A","9","7","6","3","1","0.766666636","stim/H160.jpg","76","76","0.74999999","3","2","3","","2","3","3","0","1","4","3","3","0","2","0","4","6","6","1","6","6","1","10","4","6","6","1","6","5","5","1","5","5","5","1","1","3","1","0","2","3","4","2","5","2","2","4","3","4","1","5","0","4","1","1","0","2","5","4","5","5","5","4","5","5","agree","10195","","","","","","","","<p>You have now completed the practice series.</p><p>If you have any questions, please reload this page and read the instructions again.</p><p>Otherwise, you're ready to begin the study!</p><p><strong>REMEMBER</strong>: Press <b>L </b>when you think the face is of Western origin, and <b>A </b>if not. </p><p>Press SPACE when you're ready to start!</p>","32","","",""
"html-keyboard-response","33","173724","0.0-10.0","9t26mxhx2q5utz1","1","61118884c77ef27fa0609dc4","25","10/1995","Married","English","French, Hebrew","Male","White or Caucasian","No","Undergraduate degree","No, currently not in school","N/A","N/A","N/A","9","7","6","3","1","0.766666636","stim/H160.jpg","76","76","0.74999999","3","2","3","","2","3","3","0","1","4","3","3","0","2","0","4","6","6","1","6","6","1","10","4","6","6","1","6","5","5","1","5","5","5","1","1","3","1","0","2","3","4","2","5","2","2","4","3","4","1","5","0","4","1","1","0","2","5","4","5","5","5","4","5","5","agree","1337.3999999761581","","","","","","","","<p>Block 1</p><p>Press SPACE to continue.</p>","32","","",""
"image-keyboard-response","34","175242","0.0-11.0-0.0","9t26mxhx2q5utz1","1","61118884c77ef27fa0609dc4","25","10/1995","Married","English","French, Hebrew","Male","White or Caucasian","No","Undergraduate degree","No, currently not in school","N/A","N/A","N/A","9","7","6","3","1","0.766666636","stim/H160.jpg","76","76","0.74999999","3","2","3","","2","3","3","0","1","4","3","3","0","2","0","4","6","6","1","6","6","1","10","4","6","6","1","6","5","5","1","5","5","5","1","1","3","1","0","2","3","4","2","5","2","2","4","3","4","1","5","0","4","1","1","0","2","5","4","5","5","5","4","5","5","agree","null","","","","","","","","stim/H300.jpg","null","","",""
"html-keyboard-response","35","177975","0.0-11.0-1.0","9t26mxhx2q5utz1","1","61118884c77ef27fa0609dc4","25","10/1995","Married","English","French, Hebrew","Male","White or Caucasian","No","Undergraduate degree","No, currently not in school","N/A","N/A","N/A","9","7","6","3","1","0.766666636","stim/H160.jpg","76","76","0.74999999","3","2","3","","2","3","3","0","1","4","3","3","0","2","0","4","6","6","1","6","6","1","10","4","6","6","1","6","5","5","1","5","5","5","1","1","3","1","0","2","3","4","2","5","2","2","4","3","4","1","5","0","4","1","1","0","2","5","4","5","5","5","4","5","5","agree","2731","","","","","","","","<div style=""font-size:60px;"">?</div>","76","1","1","0.8"
"image-keyboard-response","36","178981","0.0-11.0-0.1","9t26mxhx2q5utz1","1","61118884c77ef27fa0609dc4","25","10/1995","Married","English","French, Hebrew","Male","White or Caucasian","No","Undergraduate degree","No, currently not in school","N/A","N/A","N/A","9","7","6","3","1","0.766666636","stim/H160.jpg","76","76","0.74999999","3","2","3","","2","3","3","0","1","4","3","3","0","2","0","4","6","6","1","6","6","1","10","4","6","6","1","6","5","5","1","5","5","5","1","1","3","1","0","2","3","4","2","5","2","2","4","3","4","1","5","0","4","1","1","0","2","5","4","5","5","5","4","5","5","agree","null","","","","","","","","stim/T290.jpg","null","","",""
"html-keyboard-response","37","179419","0.0-11.0-1.1","9t26mxhx2q5utz1","1","61118884c77ef27fa0609dc4","25","10/1995","Married","English","French, Hebrew","Male","White or Caucasian","No","Undergraduate degree","No, currently not in school","N/A","N/A","N/A","9","7","6","3","1","0.766666636","stim/H160.jpg","76","76","0.74999999","3","2","3","","2","3","3","0","1","4","3","3","0","2","0","4","6","6","1","6","6","1","10","4","6","6","1","6","5","5","1","5","5","5","1","1","3","1","0","2","3","4","2","5","2","2","4","3","4","1","5","0","4","1","1","0","2","5","4","5","5","5","4","5","5","agree","437.2000000476837","","","","","","","","<div style=""font-size:60px;"">?</div>","65","2","1","0.8"
"image-keyboard-response","38","180430","0.0-11.0-0.2","9t26mxhx2q5utz1","1","61118884c77ef27fa0609dc4","25","10/1995","Married","English","French, Hebrew","Male","White or Caucasian","No","Undergraduate degree","No, currently not in school","N/A","N/A","N/A","9","7","6","3","1","0.766666636","stim/H160.jpg","76","76","0.74999999","3","2","3","","2","3","3","0","1","4","3","3","0","2","0","4","6","6","1","6","6","1","10","4","6","6","1","6","5","5","1","5","5","5","1","1","3","1","0","2","3","4","2","5","2","2","4","3","4","1","5","0","4","1","1","0","2","5","4","5","5","5","4","5","5","agree","null","","","","","","","","stim/H250.jpg","null","","",""
"html-keyboard-response","39","180859","0.0-11.0-1.2","9t26mxhx2q5utz1","1","61118884c77ef27fa0609dc4","25","10/1995","Married","English","French, Hebrew","Male","White or Caucasian","No","Undergraduate degree","No, currently not in school","N/A","N/A","N/A","9","7","6","3","1","0.766666636","stim/H160.jpg","76","76","0.74999999","3","2","3","","2","3","3","0","1","4","3","3","0","2","0","4","6","6","1","6","6","1","10","4","6","6","1","6","5","5","1","5","5","5","1","1","3","1","0","2","3","4","2","5","2","2","4","3","4","1","5","0","4","1","1","0","2","5","4","5","5","5","4","5","5","agree","427.60000002384186","","","","","","","","<div style=""font-size:60px;"">?</div>","76","3","1","0.8"
"image-keyboard-response","40","181875","0.0-11.0-0.3","9t26mxhx2q5utz1","1","61118884c77ef27fa0609dc4","25","10/1995","Married","English","French, Hebrew","Male","White or Caucasian","No","Undergraduate degree","No, currently not in school","N/A","N/A","N/A","9","7","6","3","1","0.766666636","stim/H160.jpg","76","76","0.74999999","3","2","3","","2","3","3","0","1","4","3","3","0","2","0","4","6","6","1","6","6","1","10","4","6","6","1","6","5","5","1","5","5","5","1","1","3","1","0","2","3","4","2","5","2","2","4","3","4","1","5","0","4","1","1","0","2","5","4","5","5","5","4","5","5","agree","null","","","","","","","","stim/H160.jpg","null","","",""
"html-keyboard-response","41","182217","0.0-11.0-1.3","9t26mxhx2q5utz1","1","61118884c77ef27fa0609dc4","25","10/1995","Married","English","French, Hebrew","Male","White or Caucasian","No","Undergraduate degree","No, currently not in school","N/A","N/A","N/A","9","7","6","3","1","0.766666636","stim/H160.jpg","76","76","0.74999999","3","2","3","","2","3","3","0","1","4","3","3","0","2","0","4","6","6","1","6","6","1","10","4","6","6","1","6","5","5","1","5","5","5","1","1","3","1","0","2","3","4","2","5","2","2","4","3","4","1","5","0","4","1","1","0","2","5","4","5","5","5","4","5","5","agree","341.5","","","","","","","","<div style=""font-size:60px;"">?</div>","76","4","1","0.8"
"image-keyboard-response","42","183228","0.0-11.0-0.4","9t26mxhx2q5utz1","1","61118884c77ef27fa0609dc4","25","10/1995","Married","English","French, Hebrew","Male","White or Caucasian","No","Undergraduate degree","No, currently not in school","N/A","N/A","N/A","9","7","6","3","1","0.766666636","stim/H160.jpg","76","76","0.74999999","3","2","3","","2","3","3","0","1","4","3","3","0","2","0","4","6","6","1","6","6","1","10","4","6","6","1","6","5","5","1","5","5","5","1","1","3","1","0","2","3","4","2","5","2","2","4","3","4","1","5","0","4","1","1","0","2","5","4","5","5","5","4","5","5","agree","null","","","","","","","","stim/H190.jpg","null","","",""
"html-keyboard-response","43","183618","0.0-11.0-1.4","9t26mxhx2q5utz1","1","61118884c77ef27fa0609dc4","25","10/1995","Married","English","French, Hebrew","Male","White or Caucasian","No","Undergraduate degree","No, currently not in school","N/A","N/A","N/A","9","7","6","3","1","0.766666636","stim/H160.jpg","76","76","0.74999999","3","2","3","","2","3","3","0","1","4","3","3","0","2","0","4","6","6","1","6","6","1","10","4","6","6","1","6","5","5","1","5","5","5","1","1","3","1","0","2","3","4","2","5","2","2","4","3","4","1","5","0","4","1","1","0","2","5","4","5","5","5","4","5","5","agree","389","","","","","","","","<div style=""font-size:60px;"">?</div>","76","5","1","0.8"
"image-keyboard-response","44","184639","0.0-11.0-0.5","9t26mxhx2q5utz1","1","61118884c77ef27fa0609dc4","25","10/1995","Married","English","French, Hebrew","Male","White or Caucasian","No","Undergraduate degree","No, currently not in school","N/A","N/A","N/A","9","7","6","3","1","0.766666636","stim/H160.jpg","76","76","0.74999999","3","2","3","","2","3","3","0","1","4","3","3","0","2","0","4","6","6","1","6","6","1","10","4","6","6","1","6","5","5","1","5","5","5","1","1","3","1","0","2","3","4","2","5","2","2","4","3","4","1","5","0","4","1","1","0","2","5","4","5","5","5","4","5","5","agree","null","","","","","","","","stim/H170.jpg","null","","",""
"html-keyboard-response","45","184938","0.0-11.0-1.5","9t26mxhx2q5utz1","1","61118884c77ef27fa0609dc4","25","10/1995","Married","English","French, Hebrew","Male","White or Caucasian","No","Undergraduate degree","No, currently not in school","N/A","N/A","N/A","9","7","6","3","1","0.766666636","stim/H160.jpg","76","76","0.74999999","3","2","3","","2","3","3","0","1","4","3","3","0","2","0","4","6","6","1","6","6","1","10","4","6","6","1","6","5","5","1","5","5","5","1","1","3","1","0","2","3","4","2","5","2","2","4","3","4","1","5","0","4","1","1","0","2","5","4","5","5","5","4","5","5","agree","297.3000000715256","","","","","","","","<div style=""font-size:60px;"">?</div>","76","6","1","0.8"
"image-keyboard-response","46","185958","0.0-11.0-0.6","9t26mxhx2q5utz1","1","61118884c77ef27fa0609dc4","25","10/1995","Married","English","French, Hebrew","Male","White or Caucasian","No","Undergraduate degree","No, currently not in school","N/A","N/A","N/A","9","7","6","3","1","0.766666636","stim/H160.jpg","76","76","0.74999999","3","2","3","","2","3","3","0","1","4","3","3","0","2","0","4","6","6","1","6","6","1","10","4","6","6","1","6","5","5","1","5","5","5","1","1","3","1","0","2","3","4","2","5","2","2","4","3","4","1","5","0","4","1","1","0","2","5","4","5","5","5","4","5","5","agree","null","","","","","","","","stim/H290.jpg","null","","",""
"html-keyboard-response","47","186249","0.0-11.0-1.6","9t26mxhx2q5utz1","1","61118884c77ef27fa0609dc4","25","10/1995","Married","English","French, Hebrew","Male","White or Caucasian","No","Undergraduate degree","No, currently not in school","N/A","N/A","N/A","9","7","6","3","1","0.766666636","stim/H160.jpg","76","76","0.74999999","3","2","3","","2","3","3","0","1","4","3","3","0","2","0","4","6","6","1","6","6","1","10","4","6","6","1","6","5","5","1","5","5","5","1","1","3","1","0","2","3","4","2","5","2","2","4","3","4","1","5","0","4","1","1","0","2","5","4","5","5","5","4","5","5","agree","290.3000000715256","","","","","","","","<div style=""font-size:60px;"">?</div>","76","7","1","0.8"
"image-keyboard-response","48","187253","0.0-11.0-0.7","9t26mxhx2q5utz1","1","61118884c77ef27fa0609dc4","25","10/1995","Married","English","French, Hebrew","Male","White or Caucasian","No","Undergraduate degree","No, currently not in school","N/A","N/A","N/A","9","7","6","3","1","0.766666636","stim/H160.jpg","76","76","0.74999999","3","2","3","","2","3","3","0","1","4","3","3","0","2","0","4","6","6","1","6","6","1","10","4","6","6","1","6","5","5","1","5","5","5","1","1","3","1","0","2","3","4","2","5","2","2","4","3","4","1","5","0","4","1","1","0","2","5","4","5","5","5","4","5","5","agree","null","","","","","","","","stim/H200.jpg","null","","",""
"html-keyboard-response","49","187643","0.0-11.0-1.7","9t26mxhx2q5utz1","1","61118884c77ef27fa0609dc4","25","10/1995","Married","English","French, Hebrew","Male","White or Caucasian","No","Undergraduate degree","No, currently not in school","N/A","N/A","N/A","9","7","6","3","1","0.766666636","stim/H160.jpg","76","76","0.74999999","3","2","3","","2","3","3","0","1","4","3","3","0","2","0","4","6","6","1","6","6","1","10","4","6","6","1","6","5","5","1","5","5","5","1","1","3","1","0","2","3","4","2","5","2","2","4","3","4","1","5","0","4","1","1","0","2","5","4","5","5","5","4","5","5","agree","389.5","","","","","","","","<div style=""font-size:60px;"">?</div>","76","8","1","0.8"
"image-keyboard-response","50","188648","0.0-11.0-0.8","9t26mxhx2q5utz1","1","61118884c77ef27fa0609dc4","25","10/1995","Married","English","French, Hebrew","Male","White or Caucasian","No","Undergraduate degree","No, currently not in school","N/A","N/A","N/A","9","7","6","3","1","0.766666636","stim/H160.jpg","76","76","0.74999999","3","2","3","","2","3","3","0","1","4","3","3","0","2","0","4","6","6","1","6","6","1","10","4","6","6","1","6","5","5","1","5","5","5","1","1","3","1","0","2","3","4","2","5","2","2","4","3","4","1","5","0","4","1","1","0","2","5","4","5","5","5","4","5","5","agree","null","","","","","","","","stim/H130.jpg","null","","",""
"html-keyboard-response","51","189011","0.0-11.0-1.8","9t26mxhx2q5utz1","1","61118884c77ef27fa0609dc4","25","10/1995","Married","English","French, Hebrew","Male","White or Caucasian","No","Undergraduate degree","No, currently not in school","N/A","N/A","N/A","9","7","6","3","1","0.766666636","stim/H160.jpg","76","76","0.74999999","3","2","3","","2","3","3","0","1","4","3","3","0","2","0","4","6","6","1","6","6","1","10","4","6","6","1","6","5","5","1","5","5","5","1","1","3","1","0","2","3","4","2","5","2","2","4","3","4","1","5","0","4","1","1","0","2","5","4","5","5","5","4","5","5","agree","362.60000002384186","","","","","","","","<div style=""font-size:60px;"">?</div>","76","9","1","0.8"
"image-keyboard-response","52","190028","0.0-11.0-0.9","9t26mxhx2q5utz1","1","61118884c77ef27fa0609dc4","25","10/1995","Married","English","French, Hebrew","Male","White or Caucasian","No","Undergraduate degree","No, currently not in school","N/A","N/A","N/A","9","7","6","3","1","0.766666636","stim/H160.jpg","76","76","0.74999999","3","2","3","","2","3","3","0","1","4","3","3","0","2","0","4","6","6","1","6","6","1","10","4","6","6","1","6","5","5","1","5","5","5","1","1","3","1","0","2","3","4","2","5","2","2","4","3","4","1","5","0","4","1","1","0","2","5","4","5","5","5","4","5","5","agree","null","","","","","","","","stim/T030.jpg","null","","",""
"html-keyboard-response","53","190402","0.0-11.0-1.9","9t26mxhx2q5utz1","1","61118884c77ef27fa0609dc4","25","10/1995","Married","English","French, Hebrew","Male","White or Caucasian","No","Undergraduate degree","No, currently not in school","N/A","N/A","N/A","9","7","6","3","1","0.766666636","stim/H160.jpg","76","76","0.74999999","3","2","3","","2","3","3","0","1","4","3","3","0","2","0","4","6","6","1","6","6","1","10","4","6","6","1","6","5","5","1","5","5","5","1","1","3","1","0","2","3","4","2","5","2","2","4","3","4","1","5","0","4","1","1","0","2","5","4","5","5","5","4","5","5","agree","372.59999990463257","","","","","","","","<div style=""font-size:60px;"">?</div>","65","10","1","0.8"
"image-keyboard-response","54","191418","0.0-11.0-0.10","9t26mxhx2q5utz1","1","61118884c77ef27fa0609dc4","25","10/1995","Married","English","French, Hebrew","Male","White or Caucasian","No","Undergraduate degree","No, currently not in school","N/A","N/A","N/A","9","7","6","3","1","0.766666636","stim/H160.jpg","76","76","0.74999999","3","2","3","","2","3","3","0","1","4","3","3","0","2","0","4","6","6","1","6","6","1","10","4","6","6","1","6","5","5","1","5","5","5","1","1","3","1","0","2","3","4","2","5","2","2","4","3","4","1","5","0","4","1","1","0","2","5","4","5","5","5","4","5","5","agree","null","","","","","","","","stim/H020.jpg","null","","",""
"html-keyboard-response","55","191726","0.0-11.0-1.10","9t26mxhx2q5utz1","1","61118884c77ef27fa0609dc4","25","10/1995","Married","English","French, Hebrew","Male","White or Caucasian","No","Undergraduate degree","No, currently not in school","N/A","N/A","N/A","9","7","6","3","1","0.766666636","stim/H160.jpg","76","76","0.74999999","3","2","3","","2","3","3","0","1","4","3","3","0","2","0","4","6","6","1","6","6","1","10","4","6","6","1","6","5","5","1","5","5","5","1","1","3","1","0","2","3","4","2","5","2","2","4","3","4","1","5","0","4","1","1","0","2","5","4","5","5","5","4","5","5","agree","306.3000000715256","","","","","","","","<div style=""font-size:60px;"">?</div>","76","11","1","0.8"
"image-keyboard-response","56","192746","0.0-11.0-0.11","9t26mxhx2q5utz1","1","61118884c77ef27fa0609dc4","25","10/1995","Married","English","French, Hebrew","Male","White or Caucasian","No","Undergraduate degree","No, currently not in school","N/A","N/A","N/A","9","7","6","3","1","0.766666636","stim/H160.jpg","76","76","0.74999999","3","2","3","","2","3","3","0","1","4","3","3","0","2","0","4","6","6","1","6","6","1","10","4","6","6","1","6","5","5","1","5","5","5","1","1","3","1","0","2","3","4","2","5","2","2","4","3","4","1","5","0","4","1","1","0","2","5","4","5","5","5","4","5","5","agree","null","","","","","","","","stim/H130.jpg","null","","",""
"html-keyboard-response","57","193118","0.0-11.0-1.11","9t26mxhx2q5utz1","1","61118884c77ef27fa0609dc4","25","10/1995","Married","English","French, Hebrew","Male","White or Caucasian","No","Undergraduate degree","No, currently not in school","N/A","N/A","N/A","9","7","6","3","1","0.766666636","stim/H160.jpg","76","76","0.74999999","3","2","3","","2","3","3","0","1","4","3","3","0","2","0","4","6","6","1","6","6","1","10","4","6","6","1","6","5","5","1","5","5","5","1","1","3","1","0","2","3","4","2","5","2","2","4","3","4","1","5","0","4","1","1","0","2","5","4","5","5","5","4","5","5","agree","371.5","","","","","","","","<div style=""font-size:60px;"">?</div>","76","12","1","0.8"
"image-keyboard-response","58","194139","0.0-11.0-0.12","9t26mxhx2q5utz1","1","61118884c77ef27fa0609dc4","25","10/1995","Married","English","French, Hebrew","Male","White or Caucasian","No","Undergraduate degree","No, currently not in school","N/A","N/A","N/A","9","7","6","3","1","0.766666636","stim/H160.jpg","76","76","0.74999999","3","2","3","","2","3","3","0","1","4","3","3","0","2","0","4","6","6","1","6","6","1","10","4","6","6","1","6","5","5","1","5","5","5","1","1","3","1","0","2","3","4","2","5","2","2","4","3","4","1","5","0","4","1","1","0","2","5","4","5","5","5","4","5","5","agree","null","","","","","","","","stim/H180.jpg","null","","",""
"html-keyboard-response","59","194487","0.0-11.0-1.12","9t26mxhx2q5utz1","1","61118884c77ef27fa0609dc4","25","10/1995","Married","English","French, Hebrew","Male","White or Caucasian","No","Undergraduate degree","No, currently not in school","N/A","N/A","N/A","9","7","6","3","1","0.766666636","stim/H160.jpg","76","76","0.74999999","3","2","3","","2","3","3","0","1","4","3","3","0","2","0","4","6","6","1","6","6","1","10","4","6","6","1","6","5","5","1","5","5","5","1","1","3","1","0","2","3","4","2","5","2","2","4","3","4","1","5","0","4","1","1","0","2","5","4","5","5","5","4","5","5","agree","346.10000002384186","","","","","","","","<div style=""font-size:60px;"">?</div>","76","13","1","0.8"
"image-keyboard-response","60","195498","0.0-11.0-0.13","9t26mxhx2q5utz1","1","61118884c77ef27fa0609dc4","25","10/1995","Married","English","French, Hebrew","Male","White or Caucasian","No","Undergraduate degree","No, currently not in school","N/A","N/A","N/A","9","7","6","3","1","0.766666636","stim/H160.jpg","76","76","0.74999999","3","2","3","","2","3","3","0","1","4","3","3","0","2","0","4","6","6","1","6","6","1","10","4","6","6","1","6","5","5","1","5","5","5","1","1","3","1","0","2","3","4","2","5","2","2","4","3","4","1","5","0","4","1","1","0","2","5","4","5","5","5","4","5","5","agree","null","","","","","","","","stim/T030.jpg","null","","",""
"html-keyboard-response","61","195833","0.0-11.0-1.13","9t26mxhx2q5utz1","1","61118884c77ef27fa0609dc4","25","10/1995","Married","English","French, Hebrew","Male","White or Caucasian","No","Undergraduate degree","No, currently not in school","N/A","N/A","N/A","9","7","6","3","1","0.766666636","stim/H160.jpg","76","76","0.74999999","3","2","3","","2","3","3","0","1","4","3","3","0","2","0","4","6","6","1","6","6","1","10","4","6","6","1","6","5","5","1","5","5","5","1","1","3","1","0","2","3","4","2","5","2","2","4","3","4","1","5","0","4","1","1","0","2","5","4","5","5","5","4","5","5","agree","334.10000002384186","","","","","","","","<div style=""font-size:60px;"">?</div>","65","14","1","0.8"
"image-keyboard-response","62","196847","0.0-11.0-0.14","9t26mxhx2q5utz1","1","61118884c77ef27fa0609dc4","25","10/1995","Married","English","French, Hebrew","Male","White or Caucasian","No","Undergraduate degree","No, currently not in school","N/A","N/A","N/A","9","7","6","3","1","0.766666636","stim/H160.jpg","76","76","0.74999999","3","2","3","","2","3","3","0","1","4","3","3","0","2","0","4","6","6","1","6","6","1","10","4","6","6","1","6","5","5","1","5","5","5","1","1","3","1","0","2","3","4","2","5","2","2","4","3","4","1","5","0","4","1","1","0","2","5","4","5","5","5","4","5","5","agree","null","","","","","","","","stim/H260.jpg","null","","",""
"html-keyboard-response","63","197184","0.0-11.0-1.14","9t26mxhx2q5utz1","1","61118884c77ef27fa0609dc4","25","10/1995","Married","English","French, Hebrew","Male","White or Caucasian","No","Undergraduate degree","No, currently not in school","N/A","N/A","N/A","9","7","6","3","1","0.766666636","stim/H160.jpg","76","76","0.74999999","3","2","3","","2","3","3","0","1","4","3","3","0","2","0","4","6","6","1","6","6","1","10","4","6","6","1","6","5","5","1","5","5","5","1","1","3","1","0","2","3","4","2","5","2","2","4","3","4","1","5","0","4","1","1","0","2","5","4","5","5","5","4","5","5","agree","336.10000002384186","","","","","","","","<div style=""font-size:60px;"">?</div>","76","15","1","0.8"
"image-keyboard-response","64","198203","0.0-11.0-0.15","9t26mxhx2q5utz1","1","61118884c77ef27fa0609dc4","25","10/1995","Married","English","French, Hebrew","Male","White or Caucasian","No","Undergraduate degree","No, currently not in school","N/A","N/A","N/A","9","7","6","3","1","0.766666636","stim/H160.jpg","76","76","0.74999999","3","2","3","","2","3","3","0","1","4","3","3","0","2","0","4","6","6","1","6","6","1","10","4","6","6","1","6","5","5","1","5","5","5","1","1","3","1","0","2","3","4","2","5","2","2","4","3","4","1","5","0","4","1","1","0","2","5","4","5","5","5","4","5","5","agree","null","","","","","","","","stim/T010.jpg","null","","",""
"html-keyboard-response","65","198566","0.0-11.0-1.15","9t26mxhx2q5utz1","1","61118884c77ef27fa0609dc4","25","10/1995","Married","English","French, Hebrew","Male","White or Caucasian","No","Undergraduate degree","No, currently not in school","N/A","N/A","N/A","9","7","6","3","1","0.766666636","stim/H160.jpg","76","76","0.74999999","3","2","3","","2","3","3","0","1","4","3","3","0","2","0","4","6","6","1","6","6","1","10","4","6","6","1","6","5","5","1","5","5","5","1","1","3","1","0","2","3","4","2","5","2","2","4","3","4","1","5","0","4","1","1","0","2","5","4","5","5","5","4","5","5","agree","361.5","","","","","","","","<div style=""font-size:60px;"">?</div>","65","16","1","0.8"
"image-keyboard-response","66","199585","0.0-11.0-0.16","9t26mxhx2q5utz1","1","61118884c77ef27fa0609dc4","25","10/1995","Married","English","French, Hebrew","Male","White or Caucasian","No","Undergraduate degree","No, currently not in school","N/A","N/A","N/A","9","7","6","3","1","0.766666636","stim/H160.jpg","76","76","0.74999999","3","2","3","","2","3","3","0","1","4","3","3","0","2","0","4","6","6","1","6","6","1","10","4","6","6","1","6","5","5","1","5","5","5","1","1","3","1","0","2","3","4","2","5","2","2","4","3","4","1","5","0","4","1","1","0","2","5","4","5","5","5","4","5","5","agree","null","","","","","","","","stim/H240.jpg","null","","",""
"html-keyboard-response","67","199955","0.0-11.0-1.16","9t26mxhx2q5utz1","1","61118884c77ef27fa0609dc4","25","10/1995","Married","English","French, Hebrew","Male","White or Caucasian","No","Undergraduate degree","No, currently not in school","N/A","N/A","N/A","9","7","6","3","1","0.766666636","stim/H160.jpg","76","76","0.74999999","3","2","3","","2","3","3","0","1","4","3","3","0","2","0","4","6","6","1","6","6","1","10","4","6","6","1","6","5","5","1","5","5","5","1","1","3","1","0","2","3","4","2","5","2","2","4","3","4","1","5","0","4","1","1","0","2","5","4","5","5","5","4","5","5","agree","368.89999997615814","","","","","","","","<div style=""font-size:60px;"">?</div>","76","17","1","0.8"
"image-keyboard-response","68","200961","0.0-11.0-0.17","9t26mxhx2q5utz1","1","61118884c77ef27fa0609dc4","25","10/1995","Married","English","French, Hebrew","Male","White or Caucasian","No","Undergraduate degree","No, currently not in school","N/A","N/A","N/A","9","7","6","3","1","0.766666636","stim/H160.jpg","76","76","0.74999999","3","2","3","","2","3","3","0","1","4","3","3","0","2","0","4","6","6","1","6","6","1","10","4","6","6","1","6","5","5","1","5","5","5","1","1","3","1","0","2","3","4","2","5","2","2","4","3","4","1","5","0","4","1","1","0","2","5","4","5","5","5","4","5","5","agree","null","","","","","","","","stim/H240.jpg","null","","",""
"html-keyboard-response","69","201293","0.0-11.0-1.17","9t26mxhx2q5utz1","1","61118884c77ef27fa0609dc4","25","10/1995","Married","English","French, Hebrew","Male","White or Caucasian","No","Undergraduate degree","No, currently not in school","N/A","N/A","N/A","9","7","6","3","1","0.766666636","stim/H160.jpg","76","76","0.74999999","3","2","3","","2","3","3","0","1","4","3","3","0","2","0","4","6","6","1","6","6","1","10","4","6","6","1","6","5","5","1","5","5","5","1","1","3","1","0","2","3","4","2","5","2","2","4","3","4","1","5","0","4","1","1","0","2","5","4","5","5","5","4","5","5","agree","330.2999999523163","","","","","","","","<div style=""font-size:60px;"">?</div>","76","18","1","0.8"
"image-keyboard-response","70","202305","0.0-11.0-0.18","9t26mxhx2q5utz1","1","61118884c77ef27fa0609dc4","25","10/1995","Married","English","French, Hebrew","Male","White or Caucasian","No","Undergraduate degree","No, currently not in school","N/A","N/A","N/A","9","7","6","3","1","0.766666636","stim/H160.jpg","76","76","0.74999999","3","2","3","","2","3","3","0","1","4","3","3","0","2","0","4","6","6","1","6","6","1","10","4","6","6","1","6","5","5","1","5","5","5","1","1","3","1","0","2","3","4","2","5","2","2","4","3","4","1","5","0","4","1","1","0","2","5","4","5","5","5","4","5","5","agree","null","","","","","","","","stim/H160.jpg","null","","",""
"html-keyboard-response","71","202649","0.0-11.0-1.18","9t26mxhx2q5utz1","1","61118884c77ef27fa0609dc4","25","10/1995","Married","English","French, Hebrew","Male","White or Caucasian","No","Undergraduate degree","No, currently not in school","N/A","N/A","N/A","9","7","6","3","1","0.766666636","stim/H160.jpg","76","76","0.74999999","3","2","3","","2","3","3","0","1","4","3","3","0","2","0","4","6","6","1","6","6","1","10","4","6","6","1","6","5","5","1","5","5","5","1","1","3","1","0","2","3","4","2","5","2","2","4","3","4","1","5","0","4","1","1","0","2","5","4","5","5","5","4","5","5","agree","341.90000009536743","","","","","","","","<div style=""font-size:60px;"">?</div>","76","19","1","0.8"
"image-keyboard-response","72","203664","0.0-11.0-0.19","9t26mxhx2q5utz1","1","61118884c77ef27fa0609dc4","25","10/1995","Married","English","French, Hebrew","Male","White or Caucasian","No","Undergraduate degree","No, currently not in school","N/A","N/A","N/A","9","7","6","3","1","0.766666636","stim/H160.jpg","76","76","0.74999999","3","2","3","","2","3","3","0","1","4","3","3","0","2","0","4","6","6","1","6","6","1","10","4","6","6","1","6","5","5","1","5","5","5","1","1","3","1","0","2","3","4","2","5","2","2","4","3","4","1","5","0","4","1","1","0","2","5","4","5","5","5","4","5","5","agree","null","","","","","","","","stim/H040.jpg","null","","",""
"html-keyboard-response","73","204086","0.0-11.0-1.19","9t26mxhx2q5utz1","1","61118884c77ef27fa0609dc4","25","10/1995","Married","English","French, Hebrew","Male","White or Caucasian","No","Undergraduate degree","No, currently not in school","N/A","N/A","N/A","9","7","6","3","1","0.766666636","stim/H160.jpg","76","76","0.74999999","3","2","3","","2","3","3","0","1","4","3","3","0","2","0","4","6","6","1","6","6","1","10","4","6","6","1","6","5","5","1","5","5","5","1","1","3","1","0","2","3","4","2","5","2","2","4","3","4","1","5","0","4","1","1","0","2","5","4","5","5","5","4","5","5","agree","420.7000000476837","","","","","","","","<div style=""font-size:60px;"">?</div>","76","20","1","0.8"
"image-keyboard-response","74","205102","0.0-11.0-0.20","9t26mxhx2q5utz1","1","61118884c77ef27fa0609dc4","25","10/1995","Married","English","French, Hebrew","Male","White or Caucasian","No","Undergraduate degree","No, currently not in school","N/A","N/A","N/A","9","7","6","3","1","0.766666636","stim/H160.jpg","76","76","0.74999999","3","2","3","","2","3","3","0","1","4","3","3","0","2","0","4","6","6","1","6","6","1","10","4","6","6","1","6","5","5","1","5","5","5","1","1","3","1","0","2","3","4","2","5","2","2","4","3","4","1","5","0","4","1","1","0","2","5","4","5","5","5","4","5","5","agree","null","","","","","","","","stim/H170.jpg","null","","",""
"html-keyboard-response","75","205408","0.0-11.0-1.20","9t26mxhx2q5utz1","1","61118884c77ef27fa0609dc4","25","10/1995","Married","English","French, Hebrew","Male","White or Caucasian","No","Undergraduate degree","No, currently not in school","N/A","N/A","N/A","9","7","6","3","1","0.766666636","stim/H160.jpg","76","76","0.74999999","3","2","3","","2","3","3","0","1","4","3","3","0","2","0","4","6","6","1","6","6","1","10","4","6","6","1","6","5","5","1","5","5","5","1","1","3","1","0","2","3","4","2","5","2","2","4","3","4","1","5","0","4","1","1","0","2","5","4","5","5","5","4","5","5","agree","304.5","","","","","","","","<div style=""font-size:60px;"">?</div>","76","21","1","0.8"
"image-keyboard-response","76","206417","0.0-11.0-0.21","9t26mxhx2q5utz1","1","61118884c77ef27fa0609dc4","25","10/1995","Married","English","French, Hebrew","Male","White or Caucasian","No","Undergraduate degree","No, currently not in school","N/A","N/A","N/A","9","7","6","3","1","0.766666636","stim/H160.jpg","76","76","0.74999999","3","2","3","","2","3","3","0","1","4","3","3","0","2","0","4","6","6","1","6","6","1","10","4","6","6","1","6","5","5","1","5","5","5","1","1","3","1","0","2","3","4","2","5","2","2","4","3","4","1","5","0","4","1","1","0","2","5","4","5","5","5","4","5","5","agree","null","","","","","","","","stim/H010.jpg","null","","",""
"html-keyboard-response","77","206685","0.0-11.0-1.21","9t26mxhx2q5utz1","1","61118884c77ef27fa0609dc4","25","10/1995","Married","English","French, Hebrew","Male","White or Caucasian","No","Undergraduate degree","No, currently not in school","N/A","N/A","N/A","9","7","6","3","1","0.766666636","stim/H160.jpg","76","76","0.74999999","3","2","3","","2","3","3","0","1","4","3","3","0","2","0","4","6","6","1","6","6","1","10","4","6","6","1","6","5","5","1","5","5","5","1","1","3","1","0","2","3","4","2","5","2","2","4","3","4","1","5","0","4","1","1","0","2","5","4","5","5","5","4","5","5","agree","266.6999999284744","","","","","","","","<div style=""font-size:60px;"">?</div>","65","22","1","0.8"
"image-keyboard-response","78","207694","0.0-11.0-0.22","9t26mxhx2q5utz1","1","61118884c77ef27fa0609dc4","25","10/1995","Married","English","French, Hebrew","Male","White or Caucasian","No","Undergraduate degree","No, currently not in school","N/A","N/A","N/A","9","7","6","3","1","0.766666636","stim/H160.jpg","76","76","0.74999999","3","2","3","","2","3","3","0","1","4","3","3","0","2","0","4","6","6","1","6","6","1","10","4","6","6","1","6","5","5","1","5","5","5","1","1","3","1","0","2","3","4","2","5","2","2","4","3","4","1","5","0","4","1","1","0","2","5","4","5","5","5","4","5","5","agree","null","","","","","","","","stim/H050.jpg","null","","",""
"html-keyboard-response","79","208049","0.0-11.0-1.22","9t26mxhx2q5utz1","1","61118884c77ef27fa0609dc4","25","10/1995","Married","English","French, Hebrew","Male","White or Caucasian","No","Undergraduate degree","No, currently not in school","N/A","N/A","N/A","9","7","6","3","1","0.766666636","stim/H160.jpg","76","76","0.74999999","3","2","3","","2","3","3","0","1","4","3","3","0","2","0","4","6","6","1","6","6","1","10","4","6","6","1","6","5","5","1","5","5","5","1","1","3","1","0","2","3","4","2","5","2","2","4","3","4","1","5","0","4","1","1","0","2","5","4","5","5","5","4","5","5","agree","354.39999997615814","","","","","","","","<div style=""font-size:60px;"">?</div>","76","23","1","0.8"
"image-keyboard-response","80","209057","0.0-11.0-0.23","9t26mxhx2q5utz1","1","61118884c77ef27fa0609dc4","25","10/1995","Married","English","French, Hebrew","Male","White or Caucasian","No","Undergraduate degree","No, currently not in school","N/A","N/A","N/A","9","7","6","3","1","0.766666636","stim/H160.jpg","76","76","0.74999999","3","2","3","","2","3","3","0","1","4","3","3","0","2","0","4","6","6","1","6","6","1","10","4","6","6","1","6","5","5","1","5","5","5","1","1","3","1","0","2","3","4","2","5","2","2","4","3","4","1","5","0","4","1","1","0","2","5","4","5","5","5","4","5","5","agree","null","","","","","","","","stim/H250.jpg","null","","",""
"html-keyboard-response","81","209484","0.0-11.0-1.23","9t26mxhx2q5utz1","1","61118884c77ef27fa0609dc4","25","10/1995","Married","English","French, Hebrew","Male","White or Caucasian","No","Undergraduate degree","No, currently not in school","N/A","N/A","N/A","9","7","6","3","1","0.766666636","stim/H160.jpg","76","76","0.74999999","3","2","3","","2","3","3","0","1","4","3","3","0","2","0","4","6","6","1","6","6","1","10","4","6","6","1","6","5","5","1","5","5","5","1","1","3","1","0","2","3","4","2","5","2","2","4","3","4","1","5","0","4","1","1","0","2","5","4","5","5","5","4","5","5","agree","426","","","","","","","","<div style=""font-size:60px;"">?</div>","76","24","1","0.8"
"image-keyboard-response","82","210503","0.0-11.0-0.24","9t26mxhx2q5utz1","1","61118884c77ef27fa0609dc4","25","10/1995","Married","English","French, Hebrew","Male","White or Caucasian","No","Undergraduate degree","No, currently not in school","N/A","N/A","N/A","9","7","6","3","1","0.766666636","stim/H160.jpg","76","76","0.74999999","3","2","3","","2","3","3","0","1","4","3","3","0","2","0","4","6","6","1","6","6","1","10","4","6","6","1","6","5","5","1","5","5","5","1","1","3","1","0","2","3","4","2","5","2","2","4","3","4","1","5","0","4","1","1","0","2","5","4","5","5","5","4","5","5","agree","null","","","","","","","","stim/H060.jpg","null","","",""
"html-keyboard-response","83","210856","0.0-11.0-1.24","9t26mxhx2q5utz1","1","61118884c77ef27fa0609dc4","25","10/1995","Married","English","French, Hebrew","Male","White or Caucasian","No","Undergraduate degree","No, currently not in school","N/A","N/A","N/A","9","7","6","3","1","0.766666636","stim/H160.jpg","76","76","0.74999999","3","2","3","","2","3","3","0","1","4","3","3","0","2","0","4","6","6","1","6","6","1","10","4","6","6","1","6","5","5","1","5","5","5","1","1","3","1","0","2","3","4","2","5","2","2","4","3","4","1","5","0","4","1","1","0","2","5","4","5","5","5","4","5","5","agree","351.7000000476837","","","","","","","","<div style=""font-size:60px;"">?</div>","65","25","1","0.8"
"image-keyboard-response","84","211872","0.0-11.0-0.25","9t26mxhx2q5utz1","1","61118884c77ef27fa0609dc4","25","10/1995","Married","English","French, Hebrew","Male","White or Caucasian","No","Undergraduate degree","No, currently not in school","N/A","N/A","N/A","9","7","6","3","1","0.766666636","stim/H160.jpg","76","76","0.74999999","3","2","3","","2","3","3","0","1","4","3","3","0","2","0","4","6","6","1","6","6","1","10","4","6","6","1","6","5","5","1","5","5","5","1","1","3","1","0","2","3","4","2","5","2","2","4","3","4","1","5","0","4","1","1","0","2","5","4","5","5","5","4","5","5","agree","null","","","","","","","","stim/H200.jpg","null","","",""
"html-keyboard-response","85","212303","0.0-11.0-1.25","9t26mxhx2q5utz1","1","61118884c77ef27fa0609dc4","25","10/1995","Married","English","French, Hebrew","Male","White or Caucasian","No","Undergraduate degree","No, currently not in school","N/A","N/A","N/A","9","7","6","3","1","0.766666636","stim/H160.jpg","76","76","0.74999999","3","2","3","","2","3","3","0","1","4","3","3","0","2","0","4","6","6","1","6","6","1","10","4","6","6","1","6","5","5","1","5","5","5","1","1","3","1","0","2","3","4","2","5","2","2","4","3","4","1","5","0","4","1","1","0","2","5","4","5","5","5","4","5","5","agree","430.1999999284744","","","","","","","","<div style=""font-size:60px;"">?</div>","76","26","1","0.8"
"image-keyboard-response","86","213312","0.0-11.0-0.26","9t26mxhx2q5utz1","1","61118884c77ef27fa0609dc4","25","10/1995","Married","English","French, Hebrew","Male","White or Caucasian","No","Undergraduate degree","No, currently not in school","N/A","N/A","N/A","9","7","6","3","1","0.766666636","stim/H160.jpg","76","76","0.74999999","3","2","3","","2","3","3","0","1","4","3","3","0","2","0","4","6","6","1","6","6","1","10","4","6","6","1","6","5","5","1","5","5","5","1","1","3","1","0","2","3","4","2","5","2","2","4","3","4","1","5","0","4","1","1","0","2","5","4","5","5","5","4","5","5","agree","null","","","","","","","","stim/H160.jpg","null","","",""
"html-keyboard-response","87","213774","0.0-11.0-1.26","9t26mxhx2q5utz1","1","61118884c77ef27fa0609dc4","25","10/1995","Married","English","French, Hebrew","Male","White or Caucasian","No","Undergraduate degree","No, currently not in school","N/A","N/A","N/A","9","7","6","3","1","0.766666636","stim/H160.jpg","76","76","0.74999999","3","2","3","","2","3","3","0","1","4","3","3","0","2","0","4","6","6","1","6","6","1","10","4","6","6","1","6","5","5","1","5","5","5","1","1","3","1","0","2","3","4","2","5","2","2","4","3","4","1","5","0","4","1","1","0","2","5","4","5","5","5","4","5","5","agree","461.1999999284744","","","","","","","","<div style=""font-size:60px;"">?</div>","76","27","1","0.8"
"image-keyboard-response","88","214786","0.0-11.0-0.27","9t26mxhx2q5utz1","1","61118884c77ef27fa0609dc4","25","10/1995","Married","English","French, Hebrew","Male","White or Caucasian","No","Undergraduate degree","No, currently not in school","N/A","N/A","N/A","9","7","6","3","1","0.766666636","stim/H160.jpg","76","76","0.74999999","3","2","3","","2","3","3","0","1","4","3","3","0","2","0","4","6","6","1","6","6","1","10","4","6","6","1","6","5","5","1","5","5","5","1","1","3","1","0","2","3","4","2","5","2","2","4","3","4","1","5","0","4","1","1","0","2","5","4","5","5","5","4","5","5","agree","null","","","","","","","","stim/T160.jpg","null","","",""
"html-keyboard-response","89","215098","0.0-11.0-1.27","9t26mxhx2q5utz1","1","61118884c77ef27fa0609dc4","25","10/1995","Married","English","French, Hebrew","Male","White or Caucasian","No","Undergraduate degree","No, currently not in school","N/A","N/A","N/A","9","7","6","3","1","0.766666636","stim/H160.jpg","76","76","0.74999999","3","2","3","","2","3","3","0","1","4","3","3","0","2","0","4","6","6","1","6","6","1","10","4","6","6","1","6","5","5","1","5","5","5","1","1","3","1","0","2","3","4","2","5","2","2","4","3","4","1","5","0","4","1","1","0","2","5","4","5","5","5","4","5","5","agree","310.7000000476837","","","","","","","","<div style=""font-size:60px;"">?</div>","65","28","1","0.8"
"image-keyboard-response","90","216113","0.0-11.0-0.28","9t26mxhx2q5utz1","1","61118884c77ef27fa0609dc4","25","10/1995","Married","English","French, Hebrew","Male","White or Caucasian","No","Undergraduate degree","No, currently not in school","N/A","N/A","N/A","9","7","6","3","1","0.766666636","stim/H160.jpg","76","76","0.74999999","3","2","3","","2","3","3","0","1","4","3","3","0","2","0","4","6","6","1","6","6","1","10","4","6","6","1","6","5","5","1","5","5","5","1","1","3","1","0","2","3","4","2","5","2","2","4","3","4","1","5","0","4","1","1","0","2","5","4","5","5","5","4","5","5","agree","null","","","","","","","","stim/H090.jpg","null","","",""
"html-keyboard-response","91","216508","0.0-11.0-1.28","9t26mxhx2q5utz1","1","61118884c77ef27fa0609dc4","25","10/1995","Married","English","French, Hebrew","Male","White or Caucasian","No","Undergraduate degree","No, currently not in school","N/A","N/A","N/A","9","7","6","3","1","0.766666636","stim/H160.jpg","76","76","0.74999999","3","2","3","","2","3","3","0","1","4","3","3","0","2","0","4","6","6","1","6","6","1","10","4","6","6","1","6","5","5","1","5","5","5","1","1","3","1","0","2","3","4","2","5","2","2","4","3","4","1","5","0","4","1","1","0","2","5","4","5","5","5","4","5","5","agree","393.89999997615814","","","","","","","","<div style=""font-size:60px;"">?</div>","76","29","1","0.8"
"image-keyboard-response","92","217523","0.0-11.0-0.29","9t26mxhx2q5utz1","1","61118884c77ef27fa0609dc4","25","10/1995","Married","English","French, Hebrew","Male","White or Caucasian","No","Undergraduate degree","No, currently not in school","N/A","N/A","N/A","9","7","6","3","1","0.766666636","stim/H160.jpg","76","76","0.74999999","3","2","3","","2","3","3","0","1","4","3","3","0","2","0","4","6","6","1","6","6","1","10","4","6","6","1","6","5","5","1","5","5","5","1","1","3","1","0","2","3","4","2","5","2","2","4","3","4","1","5","0","4","1","1","0","2","5","4","5","5","5","4","5","5","agree","null","","","","","","","","stim/T080.jpg","null","","",""
"html-keyboard-response","93","217861","0.0-11.0-1.29","9t26mxhx2q5utz1","1","61118884c77ef27fa0609dc4","25","10/1995","Married","English","French, Hebrew","Male","White or Caucasian","No","Undergraduate degree","No, currently not in school","N/A","N/A","N/A","9","7","6","3","1","0.766666636","stim/H160.jpg","76","76","0.74999999","3","2","3","","2","3","3","0","1","4","3","3","0","2","0","4","6","6","1","6","6","1","10","4","6","6","1","6","5","5","1","5","5","5","1","1","3","1","0","2","3","4","2","5","2","2","4","3","4","1","5","0","4","1","1","0","2","5","4","5","5","5","4","5","5","agree","337.10000002384186","","","","","","","","<div style=""font-size:60px;"">?</div>","65","30","1","0.8"
"image-keyboard-response","94","218871","0.0-11.0-0.30","9t26mxhx2q5utz1","1","61118884c77ef27fa0609dc4","25","10/1995","Married","English","French, Hebrew","Male","White or Caucasian","No","Undergraduate degree","No, currently not in school","N/A","N/A","N/A","9","7","6","3","1","0.766666636","stim/H160.jpg","76","76","0.74999999","3","2","3","","2","3","3","0","1","4","3","3","0","2","0","4","6","6","1","6","6","1","10","4","6","6","1","6","5","5","1","5","5","5","1","1","3","1","0","2","3","4","2","5","2","2","4","3","4","1","5","0","4","1","1","0","2","5","4","5","5","5","4","5","5","agree","null","","","","","","","","stim/H100.jpg","null","","",""
"html-keyboard-response","95","219285","0.0-11.0-1.30","9t26mxhx2q5utz1","1","61118884c77ef27fa0609dc4","25","10/1995","Married","English","French, Hebrew","Male","White or Caucasian","No","Undergraduate degree","No, currently not in school","N/A","N/A","N/A","9","7","6","3","1","0.766666636","stim/H160.jpg","76","76","0.74999999","3","2","3","","2","3","3","0","1","4","3","3","0","2","0","4","6","6","1","6","6","1","10","4","6","6","1","6","5","5","1","5","5","5","1","1","3","1","0","2","3","4","2","5","2","2","4","3","4","1","5","0","4","1","1","0","2","5","4","5","5","5","4","5","5","agree","412.7000000476837","","","","","","","","<div style=""font-size:60px;"">?</div>","76","31","1","0.8"
"image-keyboard-response","96","220299","0.0-11.0-0.31","9t26mxhx2q5utz1","1","61118884c77ef27fa0609dc4","25","10/1995","Married","English","French, Hebrew","Male","White or Caucasian","No","Undergraduate degree","No, currently not in school","N/A","N/A","N/A","9","7","6","3","1","0.766666636","stim/H160.jpg","76","76","0.74999999","3","2","3","","2","3","3","0","1","4","3","3","0","2","0","4","6","6","1","6","6","1","10","4","6","6","1","6","5","5","1","5","5","5","1","1","3","1","0","2","3","4","2","5","2","2","4","3","4","1","5","0","4","1","1","0","2","5","4","5","5","5","4","5","5","agree","null","","","","","","","","stim/H250.jpg","null","","",""
"html-keyboard-response","97","220797","0.0-11.0-1.31","9t26mxhx2q5utz1","1","61118884c77ef27fa0609dc4","25","10/1995","Married","English","French, Hebrew","Male","White or Caucasian","No","Undergraduate degree","No, currently not in school","N/A","N/A","N/A","9","7","6","3","1","0.766666636","stim/H160.jpg","76","76","0.74999999","3","2","3","","2","3","3","0","1","4","3","3","0","2","0","4","6","6","1","6","6","1","10","4","6","6","1","6","5","5","1","5","5","5","1","1","3","1","0","2","3","4","2","5","2","2","4","3","4","1","5","0","4","1","1","0","2","5","4","5","5","5","4","5","5","agree","496.5","","","","","","","","<div style=""font-size:60px;"">?</div>","76","32","1","0.8"
"image-keyboard-response","98","221804","0.0-11.0-0.32","9t26mxhx2q5utz1","1","61118884c77ef27fa0609dc4","25","10/1995","Married","English","French, Hebrew","Male","White or Caucasian","No","Undergraduate degree","No, currently not in school","N/A","N/A","N/A","9","7","6","3","1","0.766666636","stim/H160.jpg","76","76","0.74999999","3","2","3","","2","3","3","0","1","4","3","3","0","2","0","4","6","6","1","6","6","1","10","4","6","6","1","6","5","5","1","5","5","5","1","1","3","1","0","2","3","4","2","5","2","2","4","3","4","1","5","0","4","1","1","0","2","5","4","5","5","5","4","5","5","agree","null","","","","","","","","stim/H210.jpg","null","","",""
"html-keyboard-response","99","222309","0.0-11.0-1.32","9t26mxhx2q5utz1","1","61118884c77ef27fa0609dc4","25","10/1995","Married","English","French, Hebrew","Male","White or Caucasian","No","Undergraduate degree","No, currently not in school","N/A","N/A","N/A","9","7","6","3","1","0.766666636","stim/H160.jpg","76","76","0.74999999","3","2","3","","2","3","3","0","1","4","3","3","0","2","0","4","6","6","1","6","6","1","10","4","6","6","1","6","5","5","1","5","5","5","1","1","3","1","0","2","3","4","2","5","2","2","4","3","4","1","5","0","4","1","1","0","2","5","4","5","5","5","4","5","5","agree","503.5","","","","","","","","<div style=""font-size:60px;"">?</div>","76","33","1","0.8"
"image-keyboard-response","100","223320","0.0-11.0-0.33","9t26mxhx2q5utz1","1","61118884c77ef27fa0609dc4","25","10/1995","Married","English","French, Hebrew","Male","White or Caucasian","No","Undergraduate degree","No, currently not in school","N/A","N/A","N/A","9","7","6","3","1","0.766666636","stim/H160.jpg","76","76","0.74999999","3","2","3","","2","3","3","0","1","4","3","3","0","2","0","4","6","6","1","6","6","1","10","4","6","6","1","6","5","5","1","5","5","5","1","1","3","1","0","2","3","4","2","5","2","2","4","3","4","1","5","0","4","1","1","0","2","5","4","5","5","5","4","5","5","agree","null","","","","","","","","stim/H050.jpg","null","","",""
"html-keyboard-response","101","223741","0.0-11.0-1.33","9t26mxhx2q5utz1","1","61118884c77ef27fa0609dc4","25","10/1995","Married","English","French, Hebrew","Male","White or Caucasian","No","Undergraduate degree","No, currently not in school","N/A","N/A","N/A","9","7","6","3","1","0.766666636","stim/H160.jpg","76","76","0.74999999","3","2","3","","2","3","3","0","1","4","3","3","0","2","0","4","6","6","1","6","6","1","10","4","6","6","1","6","5","5","1","5","5","5","1","1","3","1","0","2","3","4","2","5","2","2","4","3","4","1","5","0","4","1","1","0","2","5","4","5","5","5","4","5","5","agree","420.39999997615814","","","","","","","","<div style=""font-size:60px;"">?</div>","65","34","1","0.8"
"image-keyboard-response","102","224763","0.0-11.0-0.34","9t26mxhx2q5utz1","1","61118884c77ef27fa0609dc4","25","10/1995","Married","English","French, Hebrew","Male","White or Caucasian","No","Undergraduate degree","No, currently not in school","N/A","N/A","N/A","9","7","6","3","1","0.766666636","stim/H160.jpg","76","76","0.74999999","3","2","3","","2","3","3","0","1","4","3","3","0","2","0","4","6","6","1","6","6","1","10","4","6","6","1","6","5","5","1","5","5","5","1","1","3","1","0","2","3","4","2","5","2","2","4","3","4","1","5","0","4","1","1","0","2","5","4","5","5","5","4","5","5","agree","null","","","","","","","","stim/T160.jpg","null","","",""
"html-keyboard-response","103","225248","0.0-11.0-1.34","9t26mxhx2q5utz1","1","61118884c77ef27fa0609dc4","25","10/1995","Married","English","French, Hebrew","Male","White or Caucasian","No","Undergraduate degree","No, currently not in school","N/A","N/A","N/A","9","7","6","3","1","0.766666636","stim/H160.jpg","76","76","0.74999999","3","2","3","","2","3","3","0","1","4","3","3","0","2","0","4","6","6","1","6","6","1","10","4","6","6","1","6","5","5","1","5","5","5","1","1","3","1","0","2","3","4","2","5","2","2","4","3","4","1","5","0","4","1","1","0","2","5","4","5","5","5","4","5","5","agree","484.2999999523163","","","","","","","","<div style=""font-size:60px;"">?</div>","65","35","1","0.8"
"image-keyboard-response","104","226264","0.0-11.0-0.35","9t26mxhx2q5utz1","1","61118884c77ef27fa0609dc4","25","10/1995","Married","English","French, Hebrew","Male","White or Caucasian","No","Undergraduate degree","No, currently not in school","N/A","N/A","N/A","9","7","6","3","1","0.766666636","stim/H160.jpg","76","76","0.74999999","3","2","3","","2","3","3","0","1","4","3","3","0","2","0","4","6","6","1","6","6","1","10","4","6","6","1","6","5","5","1","5","5","5","1","1","3","1","0","2","3","4","2","5","2","2","4","3","4","1","5","0","4","1","1","0","2","5","4","5","5","5","4","5","5","agree","null","","","","","","","","stim/T090.jpg","null","","",""
"html-keyboard-response","105","226776","0.0-11.0-1.35","9t26mxhx2q5utz1","1","61118884c77ef27fa0609dc4","25","10/1995","Married","English","French, Hebrew","Male","White or Caucasian","No","Undergraduate degree","No, currently not in school","N/A","N/A","N/A","9","7","6","3","1","0.766666636","stim/H160.jpg","76","76","0.74999999","3","2","3","","2","3","3","0","1","4","3","3","0","2","0","4","6","6","1","6","6","1","10","4","6","6","1","6","5","5","1","5","5","5","1","1","3","1","0","2","3","4","2","5","2","2","4","3","4","1","5","0","4","1","1","0","2","5","4","5","5","5","4","5","5","agree","511","","","","","","","","<div style=""font-size:60px;"">?</div>","65","36","1","0.8"
"image-keyboard-response","106","227797","0.0-11.0-0.36","9t26mxhx2q5utz1","1","61118884c77ef27fa0609dc4","25","10/1995","Married","English","French, Hebrew","Male","White or Caucasian","No","Undergraduate degree","No, currently not in school","N/A","N/A","N/A","9","7","6","3","1","0.766666636","stim/H160.jpg","76","76","0.74999999","3","2","3","","2","3","3","0","1","4","3","3","0","2","0","4","6","6","1","6","6","1","10","4","6","6","1","6","5","5","1","5","5","5","1","1","3","1","0","2","3","4","2","5","2","2","4","3","4","1","5","0","4","1","1","0","2","5","4","5","5","5","4","5","5","agree","null","","","","","","","","stim/H210.jpg","null","","",""
"html-keyboard-response","107","228241","0.0-11.0-1.36","9t26mxhx2q5utz1","1","61118884c77ef27fa0609dc4","25","10/1995","Married","English","French, Hebrew","Male","White or Caucasian","No","Undergraduate degree","No, currently not in school","N/A","N/A","N/A","9","7","6","3","1","0.766666636","stim/H160.jpg","76","76","0.74999999","3","2","3","","2","3","3","0","1","4","3","3","0","2","0","4","6","6","1","6","6","1","10","4","6","6","1","6","5","5","1","5","5","5","1","1","3","1","0","2","3","4","2","5","2","2","4","3","4","1","5","0","4","1","1","0","2","5","4","5","5","5","4","5","5","agree","442.59999990463257","","","","","","","","<div style=""font-size:60px;"">?</div>","76","37","1","0.8"
"image-keyboard-response","108","229254","0.0-11.0-0.37","9t26mxhx2q5utz1","1","61118884c77ef27fa0609dc4","25","10/1995","Married","English","French, Hebrew","Male","White or Caucasian","No","Undergraduate degree","No, currently not in school","N/A","N/A","N/A","9","7","6","3","1","0.766666636","stim/H160.jpg","76","76","0.74999999","3","2","3","","2","3","3","0","1","4","3","3","0","2","0","4","6","6","1","6","6","1","10","4","6","6","1","6","5","5","1","5","5","5","1","1","3","1","0","2","3","4","2","5","2","2","4","3","4","1","5","0","4","1","1","0","2","5","4","5","5","5","4","5","5","agree","null","","","","","","","","stim/H010.jpg","null","","",""
"html-keyboard-response","109","229651","0.0-11.0-1.37","9t26mxhx2q5utz1","1","61118884c77ef27fa0609dc4","25","10/1995","Married","English","French, Hebrew","Male","White or Caucasian","No","Undergraduate degree","No, currently not in school","N/A","N/A","N/A","9","7","6","3","1","0.766666636","stim/H160.jpg","76","76","0.74999999","3","2","3","","2","3","3","0","1","4","3","3","0","2","0","4","6","6","1","6","6","1","10","4","6","6","1","6","5","5","1","5","5","5","1","1","3","1","0","2","3","4","2","5","2","2","4","3","4","1","5","0","4","1","1","0","2","5","4","5","5","5","4","5","5","agree","396.5","","","","","","","","<div style=""font-size:60px;"">?</div>","65","38","1","0.8"
"image-keyboard-response","110","230667","0.0-11.0-0.38","9t26mxhx2q5utz1","1","61118884c77ef27fa0609dc4","25","10/1995","Married","English","French, Hebrew","Male","White or Caucasian","No","Undergraduate degree","No, currently not in school","N/A","N/A","N/A","9","7","6","3","1","0.766666636","stim/H160.jpg","76","76","0.74999999","3","2","3","","2","3","3","0","1","4","3","3","0","2","0","4","6","6","1","6","6","1","10","4","6","6","1","6","5","5","1","5","5","5","1","1","3","1","0","2","3","4","2","5","2","2","4","3","4","1","5","0","4","1","1","0","2","5","4","5","5","5","4","5","5","agree","null","","","","","","","","stim/H040.jpg","null","","",""
"html-keyboard-response","111","231142","0.0-11.0-1.38","9t26mxhx2q5utz1","1","61118884c77ef27fa0609dc4","25","10/1995","Married","English","French, Hebrew","Male","White or Caucasian","No","Undergraduate degree","No, currently not in school","N/A","N/A","N/A","9","7","6","3","1","0.766666636","stim/H160.jpg","76","76","0.74999999","3","2","3","","2","3","3","0","1","4","3","3","0","2","0","4","6","6","1","6","6","1","10","4","6","6","1","6","5","5","1","5","5","5","1","1","3","1","0","2","3","4","2","5","2","2","4","3","4","1","5","0","4","1","1","0","2","5","4","5","5","5","4","5","5","agree","474","","","","","","","","<div style=""font-size:60px;"">?</div>","65","39","1","0.8"
"image-keyboard-response","112","232169","0.0-11.0-0.39","9t26mxhx2q5utz1","1","61118884c77ef27fa0609dc4","25","10/1995","Married","English","French, Hebrew","Male","White or Caucasian","No","Undergraduate degree","No, currently not in school","N/A","N/A","N/A","9","7","6","3","1","0.766666636","stim/H160.jpg","76","76","0.74999999","3","2","3","","2","3","3","0","1","4","3","3","0","2","0","4","6","6","1","6","6","1","10","4","6","6","1","6","5","5","1","5","5","5","1","1","3","1","0","2","3","4","2","5","2","2","4","3","4","1","5","0","4","1","1","0","2","5","4","5","5","5","4","5","5","agree","null","","","","","","","","stim/H150.jpg","null","","",""
"html-keyboard-response","113","232643","0.0-11.0-1.39","9t26mxhx2q5utz1","1","61118884c77ef27fa0609dc4","25","10/1995","Married","English","French, Hebrew","Male","White or Caucasian","No","Undergraduate degree","No, currently not in school","N/A","N/A","N/A","9","7","6","3","1","0.766666636","stim/H160.jpg","76","76","0.74999999","3","2","3","","2","3","3","0","1","4","3","3","0","2","0","4","6","6","1","6","6","1","10","4","6","6","1","6","5","5","1","5","5","5","1","1","3","1","0","2","3","4","2","5","2","2","4","3","4","1","5","0","4","1","1","0","2","5","4","5","5","5","4","5","5","agree","473.59999990463257","","","","","","","","<div style=""font-size:60px;"">?</div>","76","40","1","0.8"
"image-keyboard-response","114","233656","0.0-11.0-0.40","9t26mxhx2q5utz1","1","61118884c77ef27fa0609dc4","25","10/1995","Married","English","French, Hebrew","Male","White or Caucasian","No","Undergraduate degree","No, currently not in school","N/A","N/A","N/A","9","7","6","3","1","0.766666636","stim/H160.jpg","76","76","0.74999999","3","2","3","","2","3","3","0","1","4","3","3","0","2","0","4","6","6","1","6","6","1","10","4","6","6","1","6","5","5","1","5","5","5","1","1","3","1","0","2","3","4","2","5","2","2","4","3","4","1","5","0","4","1","1","0","2","5","4","5","5","5","4","5","5","agree","null","","","","","","","","stim/H020.jpg","null","","",""
"html-keyboard-response","115","234151","0.0-11.0-1.40","9t26mxhx2q5utz1","1","61118884c77ef27fa0609dc4","25","10/1995","Married","English","French, Hebrew","Male","White or Caucasian","No","Undergraduate degree","No, currently not in school","N/A","N/A","N/A","9","7","6","3","1","0.766666636","stim/H160.jpg","76","76","0.74999999","3","2","3","","2","3","3","0","1","4","3","3","0","2","0","4","6","6","1","6","6","1","10","4","6","6","1","6","5","5","1","5","5","5","1","1","3","1","0","2","3","4","2","5","2","2","4","3","4","1","5","0","4","1","1","0","2","5","4","5","5","5","4","5","5","agree","494.60000002384186","","","","","","","","<div style=""font-size:60px;"">?</div>","65","41","1","0.8"
"image-keyboard-response","116","235175","0.0-11.0-0.41","9t26mxhx2q5utz1","1","61118884c77ef27fa0609dc4","25","10/1995","Married","English","French, Hebrew","Male","White or Caucasian","No","Undergraduate degree","No, currently not in school","N/A","N/A","N/A","9","7","6","3","1","0.766666636","stim/H160.jpg","76","76","0.74999999","3","2","3","","2","3","3","0","1","4","3","3","0","2","0","4","6","6","1","6","6","1","10","4","6","6","1","6","5","5","1","5","5","5","1","1","3","1","0","2","3","4","2","5","2","2","4","3","4","1","5","0","4","1","1","0","2","5","4","5","5","5","4","5","5","agree","null","","","","","","","","stim/T010.jpg","null","","",""
"html-keyboard-response","117","235703","0.0-11.0-1.41","9t26mxhx2q5utz1","1","61118884c77ef27fa0609dc4","25","10/1995","Married","English","French, Hebrew","Male","White or Caucasian","No","Undergraduate degree","No, currently not in school","N/A","N/A","N/A","9","7","6","3","1","0.766666636","stim/H160.jpg","76","76","0.74999999","3","2","3","","2","3","3","0","1","4","3","3","0","2","0","4","6","6","1","6","6","1","10","4","6","6","1","6","5","5","1","5","5","5","1","1","3","1","0","2","3","4","2","5","2","2","4","3","4","1","5","0","4","1","1","0","2","5","4","5","5","5","4","5","5","agree","527","","","","","","","","<div style=""font-size:60px;"">?</div>","65","42","1","0.8"
"image-keyboard-response","118","236729","0.0-11.0-0.42","9t26mxhx2q5utz1","1","61118884c77ef27fa0609dc4","25","10/1995","Married","English","French, Hebrew","Male","White or Caucasian","No","Undergraduate degree","No, currently not in school","N/A","N/A","N/A","9","7","6","3","1","0.766666636","stim/H160.jpg","76","76","0.74999999","3","2","3","","2","3","3","0","1","4","3","3","0","2","0","4","6","6","1","6","6","1","10","4","6","6","1","6","5","5","1","5","5","5","1","1","3","1","0","2","3","4","2","5","2","2","4","3","4","1","5","0","4","1","1","0","2","5","4","5","5","5","4","5","5","agree","null","","","","","","","","stim/H050.jpg","null","","",""
"html-keyboard-response","119","237223","0.0-11.0-1.42","9t26mxhx2q5utz1","1","61118884c77ef27fa0609dc4","25","10/1995","Married","English","French, Hebrew","Male","White or Caucasian","No","Undergraduate degree","No, currently not in school","N/A","N/A","N/A","9","7","6","3","1","0.766666636","stim/H160.jpg","76","76","0.74999999","3","2","3","","2","3","3","0","1","4","3","3","0","2","0","4","6","6","1","6","6","1","10","4","6","6","1","6","5","5","1","5","5","5","1","1","3","1","0","2","3","4","2","5","2","2","4","3","4","1","5","0","4","1","1","0","2","5","4","5","5","5","4","5","5","agree","493.7000000476837","","","","","","","","<div style=""font-size:60px;"">?</div>","76","43","1","0.8"
"image-keyboard-response","120","238246","0.0-11.0-0.43","9t26mxhx2q5utz1","1","61118884c77ef27fa0609dc4","25","10/1995","Married","English","French, Hebrew","Male","White or Caucasian","No","Undergraduate degree","No, currently not in school","N/A","N/A","N/A","9","7","6","3","1","0.766666636","stim/H160.jpg","76","76","0.74999999","3","2","3","","2","3","3","0","1","4","3","3","0","2","0","4","6","6","1","6","6","1","10","4","6","6","1","6","5","5","1","5","5","5","1","1","3","1","0","2","3","4","2","5","2","2","4","3","4","1","5","0","4","1","1","0","2","5","4","5","5","5","4","5","5","agree","null","","","","","","","","stim/T140.jpg","null","","",""
"html-keyboard-response","121","238751","0.0-11.0-1.43","9t26mxhx2q5utz1","1","61118884c77ef27fa0609dc4","25","10/1995","Married","English","French, Hebrew","Male","White or Caucasian","No","Undergraduate degree","No, currently not in school","N/A","N/A","N/A","9","7","6","3","1","0.766666636","stim/H160.jpg","76","76","0.74999999","3","2","3","","2","3","3","0","1","4","3","3","0","2","0","4","6","6","1","6","6","1","10","4","6","6","1","6","5","5","1","5","5","5","1","1","3","1","0","2","3","4","2","5","2","2","4","3","4","1","5","0","4","1","1","0","2","5","4","5","5","5","4","5","5","agree","504.2000000476837","","","","","","","","<div style=""font-size:60px;"">?</div>","65","44","1","0.8"
"image-keyboard-response","122","239767","0.0-11.0-0.44","9t26mxhx2q5utz1","1","61118884c77ef27fa0609dc4","25","10/1995","Married","English","French, Hebrew","Male","White or Caucasian","No","Undergraduate degree","No, currently not in school","N/A","N/A","N/A","9","7","6","3","1","0.766666636","stim/H160.jpg","76","76","0.74999999","3","2","3","","2","3","3","0","1","4","3","3","0","2","0","4","6","6","1","6","6","1","10","4","6","6","1","6","5","5","1","5","5","5","1","1","3","1","0","2","3","4","2","5","2","2","4","3","4","1","5","0","4","1","1","0","2","5","4","5","5","5","4","5","5","agree","null","","","","","","","","stim/H130.jpg","null","","",""
"html-keyboard-response","123","240278","0.0-11.0-1.44","9t26mxhx2q5utz1","1","61118884c77ef27fa0609dc4","25","10/1995","Married","English","French, Hebrew","Male","White or Caucasian","No","Undergraduate degree","No, currently not in school","N/A","N/A","N/A","9","7","6","3","1","0.766666636","stim/H160.jpg","76","76","0.74999999","3","2","3","","2","3","3","0","1","4","3","3","0","2","0","4","6","6","1","6","6","1","10","4","6","6","1","6","5","5","1","5","5","5","1","1","3","1","0","2","3","4","2","5","2","2","4","3","4","1","5","0","4","1","1","0","2","5","4","5","5","5","4","5","5","agree","509.60000002384186","","","","","","","","<div style=""font-size:60px;"">?</div>","76","45","1","0.8"
"image-keyboard-response","124","241293","0.0-11.0-0.45","9t26mxhx2q5utz1","1","61118884c77ef27fa0609dc4","25","10/1995","Married","English","French, Hebrew","Male","White or Caucasian","No","Undergraduate degree","No, currently not in school","N/A","N/A","N/A","9","7","6","3","1","0.766666636","stim/H160.jpg","76","76","0.74999999","3","2","3","","2","3","3","0","1","4","3","3","0","2","0","4","6","6","1","6","6","1","10","4","6","6","1","6","5","5","1","5","5","5","1","1","3","1","0","2","3","4","2","5","2","2","4","3","4","1","5","0","4","1","1","0","2","5","4","5","5","5","4","5","5","agree","null","","","","","","","","stim/H040.jpg","null","","",""
"html-keyboard-response","125","241855","0.0-11.0-1.45","9t26mxhx2q5utz1","1","61118884c77ef27fa0609dc4","25","10/1995","Married","English","French, Hebrew","Male","White or Caucasian","No","Undergraduate degree","No, currently not in school","N/A","N/A","N/A","9","7","6","3","1","0.766666636","stim/H160.jpg","76","76","0.74999999","3","2","3","","2","3","3","0","1","4","3","3","0","2","0","4","6","6","1","6","6","1","10","4","6","6","1","6","5","5","1","5","5","5","1","1","3","1","0","2","3","4","2","5","2","2","4","3","4","1","5","0","4","1","1","0","2","5","4","5","5","5","4","5","5","agree","560.8999999761581","","","","","","","","<div style=""font-size:60px;"">?</div>","76","46","1","0.8"
"image-keyboard-response","126","242871","0.0-11.0-0.46","9t26mxhx2q5utz1","1","61118884c77ef27fa0609dc4","25","10/1995","Married","English","French, Hebrew","Male","White or Caucasian","No","Undergraduate degree","No, currently not in school","N/A","N/A","N/A","9","7","6","3","1","0.766666636","stim/H160.jpg","76","76","0.74999999","3","2","3","","2","3","3","0","1","4","3","3","0","2","0","4","6","6","1","6","6","1","10","4","6","6","1","6","5","5","1","5","5","5","1","1","3","1","0","2","3","4","2","5","2","2","4","3","4","1","5","0","4","1","1","0","2","5","4","5","5","5","4","5","5","agree","null","","","","","","","","stim/H170.jpg","null","","",""
"html-keyboard-response","127","243430","0.0-11.0-1.46","9t26mxhx2q5utz1","1","61118884c77ef27fa0609dc4","25","10/1995","Married","English","French, Hebrew","Male","White or Caucasian","No","Undergraduate degree","No, currently not in school","N/A","N/A","N/A","9","7","6","3","1","0.766666636","stim/H160.jpg","76","76","0.74999999","3","2","3","","2","3","3","0","1","4","3","3","0","2","0","4","6","6","1","6","6","1","10","4","6","6","1","6","5","5","1","5","5","5","1","1","3","1","0","2","3","4","2","5","2","2","4","3","4","1","5","0","4","1","1","0","2","5","4","5","5","5","4","5","5","agree","558","","","","","","","","<div style=""font-size:60px;"">?</div>","76","47","1","0.8"
"image-keyboard-response","128","244445","0.0-11.0-0.47","9t26mxhx2q5utz1","1","61118884c77ef27fa0609dc4","25","10/1995","Married","English","French, Hebrew","Male","White or Caucasian","No","Undergraduate degree","No, currently not in school","N/A","N/A","N/A","9","7","6","3","1","0.766666636","stim/H160.jpg","76","76","0.74999999","3","2","3","","2","3","3","0","1","4","3","3","0","2","0","4","6","6","1","6","6","1","10","4","6","6","1","6","5","5","1","5","5","5","1","1","3","1","0","2","3","4","2","5","2","2","4","3","4","1","5","0","4","1","1","0","2","5","4","5","5","5","4","5","5","agree","null","","","","","","","","stim/H300.jpg","null","","",""
"html-keyboard-response","129","245023","0.0-11.0-1.47","9t26mxhx2q5utz1","1","61118884c77ef27fa0609dc4","25","10/1995","Married","English","French, Hebrew","Male","White or Caucasian","No","Undergraduate degree","No, currently not in school","N/A","N/A","N/A","9","7","6","3","1","0.766666636","stim/H160.jpg","76","76","0.74999999","3","2","3","","2","3","3","0","1","4","3","3","0","2","0","4","6","6","1","6","6","1","10","4","6","6","1","6","5","5","1","5","5","5","1","1","3","1","0","2","3","4","2","5","2","2","4","3","4","1","5","0","4","1","1","0","2","5","4","5","5","5","4","5","5","agree","577.8000000715256","","","","","","","","<div style=""font-size:60px;"">?</div>","76","48","1","0.8"
"image-keyboard-response","130","246045","0.0-11.0-0.48","9t26mxhx2q5utz1","1","61118884c77ef27fa0609dc4","25","10/1995","Married","English","French, Hebrew","Male","White or Caucasian","No","Undergraduate degree","No, currently not in school","N/A","N/A","N/A","9","7","6","3","1","0.766666636","stim/H160.jpg","76","76","0.74999999","3","2","3","","2","3","3","0","1","4","3","3","0","2","0","4","6","6","1","6","6","1","10","4","6","6","1","6","5","5","1","5","5","5","1","1","3","1","0","2","3","4","2","5","2","2","4","3","4","1","5","0","4","1","1","0","2","5","4","5","5","5","4","5","5","agree","null","","","","","","","","stim/H090.jpg","null","","",""
"html-keyboard-response","131","246577","0.0-11.0-1.48","9t26mxhx2q5utz1","1","61118884c77ef27fa0609dc4","25","10/1995","Married","English","French, Hebrew","Male","White or Caucasian","No","Undergraduate degree","No, currently not in school","N/A","N/A","N/A","9","7","6","3","1","0.766666636","stim/H160.jpg","76","76","0.74999999","3","2","3","","2","3","3","0","1","4","3","3","0","2","0","4","6","6","1","6","6","1","10","4","6","6","1","6","5","5","1","5","5","5","1","1","3","1","0","2","3","4","2","5","2","2","4","3","4","1","5","0","4","1","1","0","2","5","4","5","5","5","4","5","5","agree","531","","","","","","","","<div style=""font-size:60px;"">?</div>","76","49","1","0.8"
"image-keyboard-response","132","247586","0.0-11.0-0.49","9t26mxhx2q5utz1","1","61118884c77ef27fa0609dc4","25","10/1995","Married","English","French, Hebrew","Male","White or Caucasian","No","Undergraduate degree","No, currently not in school","N/A","N/A","N/A","9","7","6","3","1","0.766666636","stim/H160.jpg","76","76","0.74999999","3","2","3","","2","3","3","0","1","4","3","3","0","2","0","4","6","6","1","6","6","1","10","4","6","6","1","6","5","5","1","5","5","5","1","1","3","1","0","2","3","4","2","5","2","2","4","3","4","1","5","0","4","1","1","0","2","5","4","5","5","5","4","5","5","agree","null","","","","","","","","stim/H210.jpg","null","","",""
"html-keyboard-response","133","248130","0.0-11.0-1.49","9t26mxhx2q5utz1","1","61118884c77ef27fa0609dc4","25","10/1995","Married","English","French, Hebrew","Male","White or Caucasian","No","Undergraduate degree","No, currently not in school","N/A","N/A","N/A","9","7","6","3","1","0.766666636","stim/H160.jpg","76","76","0.74999999","3","2","3","","2","3","3","0","1","4","3","3","0","2","0","4","6","6","1","6","6","1","10","4","6","6","1","6","5","5","1","5","5","5","1","1","3","1","0","2","3","4","2","5","2","2","4","3","4","1","5","0","4","1","1","0","2","5","4","5","5","5","4","5","5","agree","543.8000000715256","","","","","","","","<div style=""font-size:60px;"">?</div>","76","50","1","0.8"
"html-keyboard-response","134","251425","0.0-12.0","9t26mxhx2q5utz1","1","61118884c77ef27fa0609dc4","25","10/1995","Married","English","French, Hebrew","Male","White or Caucasian","No","Undergraduate degree","No, currently not in school","N/A","N/A","N/A","9","7","6","3","1","0.766666636","stim/H160.jpg","76","76","0.74999999","3","2","3","","2","3","3","0","1","4","3","3","0","2","0","4","6","6","1","6","6","1","10","4","6","6","1","6","5","5","1","5","5","5","1","1","3","1","0","2","3","4","2","5","2","2","4","3","4","1","5","0","4","1","1","0","2","5","4","5","5","5","4","5","5","agree","2790.8000000715256","","","","","","","","<p>Block 2</p><p>Press SPACE to continue.</p>","32","","",""
"image-keyboard-response","135","252929","0.0-13.0-0.0","9t26mxhx2q5utz1","1","61118884c77ef27fa0609dc4","25","10/1995","Married","English","French, Hebrew","Male","White or Caucasian","No","Undergraduate degree","No, currently not in school","N/A","N/A","N/A","9","7","6","3","1","0.766666636","stim/H160.jpg","76","76","0.74999999","3","2","3","","2","3","3","0","1","4","3","3","0","2","0","4","6","6","1","6","6","1","10","4","6","6","1","6","5","5","1","5","5","5","1","1","3","1","0","2","3","4","2","5","2","2","4","3","4","1","5","0","4","1","1","0","2","5","4","5","5","5","4","5","5","agree","null","","","","","","","","stim/H040.jpg","null","","",""
"html-keyboard-response","136","253257","0.0-13.0-1.0","9t26mxhx2q5utz1","1","61118884c77ef27fa0609dc4","25","10/1995","Married","English","French, Hebrew","Male","White or Caucasian","No","Undergraduate degree","No, currently not in school","N/A","N/A","N/A","9","7","6","3","1","0.766666636","stim/H160.jpg","76","76","0.74999999","3","2","3","","2","3","3","0","1","4","3","3","0","2","0","4","6","6","1","6","6","1","10","4","6","6","1","6","5","5","1","5","5","5","1","1","3","1","0","2","3","4","2","5","2","2","4","3","4","1","5","0","4","1","1","0","2","5","4","5","5","5","4","5","5","agree","326.09999990463257","","","","","","","","<div style=""font-size:60px;"">?</div>","76","1","2","0.8"
"image-keyboard-response","137","254270","0.0-13.0-0.1","9t26mxhx2q5utz1","1","61118884c77ef27fa0609dc4","25","10/1995","Married","English","French, Hebrew","Male","White or Caucasian","No","Undergraduate degree","No, currently not in school","N/A","N/A","N/A","9","7","6","3","1","0.766666636","stim/H160.jpg","76","76","0.74999999","3","2","3","","2","3","3","0","1","4","3","3","0","2","0","4","6","6","1","6","6","1","10","4","6","6","1","6","5","5","1","5","5","5","1","1","3","1","0","2","3","4","2","5","2","2","4","3","4","1","5","0","4","1","1","0","2","5","4","5","5","5","4","5","5","agree","null","","","","","","","","stim/H030.jpg","null","","",""
"html-keyboard-response","138","254732","0.0-13.0-1.1","9t26mxhx2q5utz1","1","61118884c77ef27fa0609dc4","25","10/1995","Married","English","French, Hebrew","Male","White or Caucasian","No","Undergraduate degree","No, currently not in school","N/A","N/A","N/A","9","7","6","3","1","0.766666636","stim/H160.jpg","76","76","0.74999999","3","2","3","","2","3","3","0","1","4","3","3","0","2","0","4","6","6","1","6","6","1","10","4","6","6","1","6","5","5","1","5","5","5","1","1","3","1","0","2","3","4","2","5","2","2","4","3","4","1","5","0","4","1","1","0","2","5","4","5","5","5","4","5","5","agree","461.60000002384186","","","","","","","","<div style=""font-size:60px;"">?</div>","76","2","2","0.8"
"image-keyboard-response","139","255745","0.0-13.0-0.2","9t26mxhx2q5utz1","1","61118884c77ef27fa0609dc4","25","10/1995","Married","English","French, Hebrew","Male","White or Caucasian","No","Undergraduate degree","No, currently not in school","N/A","N/A","N/A","9","7","6","3","1","0.766666636","stim/H160.jpg","76","76","0.74999999","3","2","3","","2","3","3","0","1","4","3","3","0","2","0","4","6","6","1","6","6","1","10","4","6","6","1","6","5","5","1","5","5","5","1","1","3","1","0","2","3","4","2","5","2","2","4","3","4","1","5","0","4","1","1","0","2","5","4","5","5","5","4","5","5","agree","null","","","","","","","","stim/H200.jpg","null","","",""
"html-keyboard-response","140","256258","0.0-13.0-1.2","9t26mxhx2q5utz1","1","61118884c77ef27fa0609dc4","25","10/1995","Married","English","French, Hebrew","Male","White or Caucasian","No","Undergraduate degree","No, currently not in school","N/A","N/A","N/A","9","7","6","3","1","0.766666636","stim/H160.jpg","76","76","0.74999999","3","2","3","","2","3","3","0","1","4","3","3","0","2","0","4","6","6","1","6","6","1","10","4","6","6","1","6","5","5","1","5","5","5","1","1","3","1","0","2","3","4","2","5","2","2","4","3","4","1","5","0","4","1","1","0","2","5","4","5","5","5","4","5","5","agree","512","","","","","","","","<div style=""font-size:60px;"">?</div>","76","3","2","0.8"
"image-keyboard-response","141","257288","0.0-13.0-0.3","9t26mxhx2q5utz1","1","61118884c77ef27fa0609dc4","25","10/1995","Married","English","French, Hebrew","Male","White or Caucasian","No","Undergraduate degree","No, currently not in school","N/A","N/A","N/A","9","7","6","3","1","0.766666636","stim/H160.jpg","76","76","0.74999999","3","2","3","","2","3","3","0","1","4","3","3","0","2","0","4","6","6","1","6","6","1","10","4","6","6","1","6","5","5","1","5","5","5","1","1","3","1","0","2","3","4","2","5","2","2","4","3","4","1","5","0","4","1","1","0","2","5","4","5","5","5","4","5","5","agree","null","","","","","","","","stim/H230.jpg","null","","",""
"html-keyboard-response","142","257721","0.0-13.0-1.3","9t26mxhx2q5utz1","1","61118884c77ef27fa0609dc4","25","10/1995","Married","English","French, Hebrew","Male","White or Caucasian","No","Undergraduate degree","No, currently not in school","N/A","N/A","N/A","9","7","6","3","1","0.766666636","stim/H160.jpg","76","76","0.74999999","3","2","3","","2","3","3","0","1","4","3","3","0","2","0","4","6","6","1","6","6","1","10","4","6","6","1","6","5","5","1","5","5","5","1","1","3","1","0","2","3","4","2","5","2","2","4","3","4","1","5","0","4","1","1","0","2","5","4","5","5","5","4","5","5","agree","432.89999997615814","","","","","","","","<div style=""font-size:60px;"">?</div>","76","4","2","0.8"
