"trial_type","trial_index","time_elapsed","internal_node_id","subject","condition","ID","age","dob","marital","natlang","olang","gender","ethnicity","mental_check","educ_l","educ_c","mental","mentdrug","mentpos","sesparent","sesstudent","sesladder","educ_hs","educ_ce","s1self","chosenbody","s1selfjudge","s2selfjudge","s2self","sspc_01","sspc_02","pas_01","pas_02","pas_03","pas_04","pas_05","pas_06","pas_07","pas_08","pas_09","pas_10","pas_11","pas_12","pas_13","pas_14","contact_01","contact_02","contact_03","contact_04","contact_05","contact_06","contact_07","contact_08","contact_09","idnd_01","idnd_02","idnd_03","idnd_04","idnd_05","idnd_06","idnd_07","idnd_08","catch_01","adig_01","adig_02","adig_03","plcs_01","plcs_02","plcs_03","plcs_04","plcs_05","plcs_06","plcs_07","plcs_08","plcs_09","plcs_10","plcs_11","plcs_12","catch_02","wwwp_01","wwwp_02","wwwp_03","wwwp_04","wwwp_05","wwwp_06","wwwp_07","wwwp_08","wwwp_09","lsns_fam_1","lsns_fam_2","lsns_fam_3","lsns_fri_1","lsns_fri_2","lsns_fri_3","debrief","rt","url","success","view_history","responses","question_order","final_value","start_value","stimulus","key_press","trial","block","freq"
"pavlovia","0","5","0.0-0.0","8u9f0x9pjpyoc6t","1","6110edf4068624b36128a2f7","23","10/1997","in a relationship","Farsi","English, Pashto, French, Urdu","Female","Asian","No","Undergraduate degree","Yes, Undergraduate studies","N/A","N/A","N/A","0","3","4","0","4","0.766666676","stim/H160.jpg","76","76","0.866666672","3","1","4","","2","1","4","2","3","3","4","4","0","1","1","2","5","6","1","6","6","1","10","2","5","5","0","5","5","5","0","1","3","5","3","2","0","1","1","3","3","3","1","1","3","3","3","2","3","1","6","6","6","6","5","5","4","6","5","5","5","4","5","4","4","agree","","","","","","","","","","","","",""
"external-html","1","14297","0.0-1.0","8u9f0x9pjpyoc6t","1","6110edf4068624b36128a2f7","23","10/1997","in a relationship","Farsi","English, Pashto, French, Urdu","Female","Asian","No","Undergraduate degree","Yes, Undergraduate studies","N/A","N/A","N/A","0","3","4","0","4","0.766666676","stim/H160.jpg","76","76","0.866666672","3","1","4","","2","1","4","2","3","3","4","4","0","1","1","2","5","6","1","6","6","1","10","2","5","5","0","5","5","5","0","1","3","5","3","2","0","1","1","3","3","3","1","1","3","3","3","2","3","1","6","6","6","6","5","5","4","6","5","5","5","4","5","4","4","agree","13954","sub/html/consent.html","","","","","","","","","","",""
"fullscreen","2","19623","0.0-2.0","8u9f0x9pjpyoc6t","1","6110edf4068624b36128a2f7","23","10/1997","in a relationship","Farsi","English, Pashto, French, Urdu","Female","Asian","No","Undergraduate degree","Yes, Undergraduate studies","N/A","N/A","N/A","0","3","4","0","4","0.766666676","stim/H160.jpg","76","76","0.866666672","3","1","4","","2","1","4","2","3","3","4","4","0","1","1","2","5","6","1","6","6","1","10","2","5","5","0","5","5","5","0","1","3","5","3","2","0","1","1","3","3","3","1","1","3","3","3","2","3","1","6","6","6","6","5","5","4","6","5","5","5","4","5","4","4","agree","","","true","","","","","","","","","",""
"instructions","3","33025","0.0-3.0","8u9f0x9pjpyoc6t","1","6110edf4068624b36128a2f7","23","10/1997","in a relationship","Farsi","English, Pashto, French, Urdu","Female","Asian","No","Undergraduate degree","Yes, Undergraduate studies","N/A","N/A","N/A","0","3","4","0","4","0.766666676","stim/H160.jpg","76","76","0.866666672","3","1","4","","2","1","4","2","3","3","4","4","0","1","1","2","5","6","1","6","6","1","10","2","5","5","0","5","5","5","0","1","3","5","3","2","0","1","1","3","3","3","1","1","3","3","3","2","3","1","6","6","6","6","5","5","4","6","5","5","5","4","5","4","4","agree","13401.100000023842","","","[{""page_index"":0,""viewing_time"":5311.300000011921},{""page_index"":1,""viewing_time"":8088.300000011921}]","","","","","","","","",""
"survey-text","4","103951","0.0-4.0-0.0","8u9f0x9pjpyoc6t","1","6110edf4068624b36128a2f7","23","10/1997","in a relationship","Farsi","English, Pashto, French, Urdu","Female","Asian","No","Undergraduate degree","Yes, Undergraduate studies","N/A","N/A","N/A","0","3","4","0","4","0.766666676","stim/H160.jpg","76","76","0.866666672","3","1","4","","2","1","4","2","3","3","4","4","0","1","1","2","5","6","1","6","6","1","10","2","5","5","0","5","5","5","0","1","3","5","3","2","0","1","1","3","3","3","1","1","3","3","3","2","3","1","6","6","6","6","5","5","4","6","5","5","5","4","5","4","4","agree","70918.10000002384","","","","{""ID"":""6110edf4068624b36128a2f7"",""age"":""23"",""dob"":""10/1997"",""marital"":""in a relationship"",""natlang"":""Farsi"",""olang"":""English, Pashto, French, Urdu""}","","","","","","","",""
"survey-multi-choice","5","143317","0.0-4.0-1.0","8u9f0x9pjpyoc6t","1","6110edf4068624b36128a2f7","23","10/1997","in a relationship","Farsi","English, Pashto, French, Urdu","Female","Asian","No","Undergraduate degree","Yes, Undergraduate studies","N/A","N/A","N/A","0","3","4","0","4","0.766666676","stim/H160.jpg","76","76","0.866666672","3","1","4","","2","1","4","2","3","3","4","4","0","1","1","2","5","6","1","6","6","1","10","2","5","5","0","5","5","5","0","1","3","5","3","2","0","1","1","3","3","3","1","1","3","3","3","2","3","1","6","6","6","6","5","5","4","6","5","5","5","4","5","4","4","agree","39361.30000001192","","","","{""gender"":""Female"",""ethnicity"":""Asian"",""mental_check"":""No"",""educ_l"":""Undergraduate degree"",""educ_c"":""Yes, Undergraduate studies""}","[0,1,2,3,4]","","","","","","",""
"survey-text","6","172999","0.0-4.0-2.0","8u9f0x9pjpyoc6t","1","6110edf4068624b36128a2f7","23","10/1997","in a relationship","Farsi","English, Pashto, French, Urdu","Female","Asian","No","Undergraduate degree","Yes, Undergraduate studies","N/A","N/A","N/A","0","3","4","0","4","0.766666676","stim/H160.jpg","76","76","0.866666672","3","1","4","","2","1","4","2","3","3","4","4","0","1","1","2","5","6","1","6","6","1","10","2","5","5","0","5","5","5","0","1","3","5","3","2","0","1","1","3","3","3","1","1","3","3","3","2","3","1","6","6","6","6","5","5","4","6","5","5","5","4","5","4","4","agree","29675.100000023842","","","","{""mental"":""N/A"",""mentdrug"":""N/A"",""mentpos"":""N/A""}","","","","","","","",""
"survey-likert","7","238330","0.0-4.0-3.0","8u9f0x9pjpyoc6t","1","6110edf4068624b36128a2f7","23","10/1997","in a relationship","Farsi","English, Pashto, French, Urdu","Female","Asian","No","Undergraduate degree","Yes, Undergraduate studies","N/A","N/A","N/A","0","3","4","0","4","0.766666676","stim/H160.jpg","76","76","0.866666672","3","1","4","","2","1","4","2","3","3","4","4","0","1","1","2","5","6","1","6","6","1","10","2","5","5","0","5","5","5","0","1","3","5","3","2","0","1","1","3","3","3","1","1","3","3","3","2","3","1","6","6","6","6","5","5","4","6","5","5","5","4","5","4","4","agree","65326.19999998808","","","","{""sesparent"":0,""sesstudent"":3,""sesladder"":4}","[0,1,2]","","","","","","",""
"survey-likert","8","258136","0.0-4.0-4.0","8u9f0x9pjpyoc6t","1","6110edf4068624b36128a2f7","23","10/1997","in a relationship","Farsi","English, Pashto, French, Urdu","Female","Asian","No","Undergraduate degree","Yes, Undergraduate studies","N/A","N/A","N/A","0","3","4","0","4","0.766666676","stim/H160.jpg","76","76","0.866666672","3","1","4","","2","1","4","2","3","3","4","4","0","1","1","2","5","6","1","6","6","1","10","2","5","5","0","5","5","5","0","1","3","5","3","2","0","1","1","3","3","3","1","1","3","3","3","2","3","1","6","6","6","6","5","5","4","6","5","5","5","4","5","4","4","agree","19800.80000001192","","","","{""educ_hs"":2,""educ_ce"":13}","[0,1]","","","","","","",""
"reconstruction","9","326217","0.0-5.0","8u9f0x9pjpyoc6t","1","6110edf4068624b36128a2f7","23","10/1997","in a relationship","Farsi","English, Pashto, French, Urdu","Female","Asian","No","Undergraduate degree","Yes, Undergraduate studies","N/A","N/A","N/A","0","3","4","0","4","0.766666676","stim/H160.jpg","76","76","0.866666672","3","1","4","","2","1","4","2","3","3","4","4","0","1","1","2","5","6","1","6","6","1","10","2","5","5","0","5","5","5","0","1","3","5","3","2","0","1","1","3","3","3","1","1","3","3","3","2","3","1","6","6","6","6","5","5","4","6","5","5","5","4","5","4","4","agree","68077.10000002384","","","","","","0.766666676","0.5","","","","",""
"image-keyboard-response","10","334478","0.0-6.0","8u9f0x9pjpyoc6t","1","6110edf4068624b36128a2f7","23","10/1997","in a relationship","Farsi","English, Pashto, French, Urdu","Female","Asian","No","Undergraduate degree","Yes, Undergraduate studies","N/A","N/A","N/A","0","3","4","0","4","0.766666676","stim/H160.jpg","76","76","0.866666672","3","1","4","","2","1","4","2","3","3","4","4","0","1","1","2","5","6","1","6","6","1","10","2","5","5","0","5","5","5","0","1","3","5","3","2","0","1","1","3","3","3","1","1","3","3","3","2","3","1","6","6","6","6","5","5","4","6","5","5","5","4","5","4","4","agree","8256.5","","","","","","","","stim/H160.jpg","76","","",""
"instructions","11","380789","0.0-7.0","8u9f0x9pjpyoc6t","1","6110edf4068624b36128a2f7","23","10/1997","in a relationship","Farsi","English, Pashto, French, Urdu","Female","Asian","No","Undergraduate degree","Yes, Undergraduate studies","N/A","N/A","N/A","0","3","4","0","4","0.766666676","stim/H160.jpg","76","76","0.866666672","3","1","4","","2","1","4","2","3","3","4","4","0","1","1","2","5","6","1","6","6","1","10","2","5","5","0","5","5","5","0","1","3","5","3","2","0","1","1","3","3","3","1","1","3","3","3","2","3","1","6","6","6","6","5","5","4","6","5","5","5","4","5","4","4","agree","46311.39999997616","","","[{""page_index"":0,""viewing_time"":3336.800000011921},{""page_index"":1,""viewing_time"":7784.099999964237},{""page_index"":2,""viewing_time"":5025.800000011921},{""page_index"":3,""viewing_time"":7564.800000011921},{""page_index"":4,""viewing_time"":5102.5},{""page_index"":5,""viewing_time"":11649.600000023842},{""page_index"":6,""viewing_time"":5847.199999988079}]","","","","","","","","",""
"image-keyboard-response","12","381292","0.0-8.0-0.0","8u9f0x9pjpyoc6t","1","6110edf4068624b36128a2f7","23","10/1997","in a relationship","Farsi","English, Pashto, French, Urdu","Female","Asian","No","Undergraduate degree","Yes, Undergraduate studies","N/A","N/A","N/A","0","3","4","0","4","0.766666676","stim/H160.jpg","76","76","0.866666672","3","1","4","","2","1","4","2","3","3","4","4","0","1","1","2","5","6","1","6","6","1","10","2","5","5","0","5","5","5","0","1","3","5","3","2","0","1","1","3","3","3","1","1","3","3","3","2","3","1","6","6","6","6","5","5","4","6","5","5","5","4","5","4","4","agree","null","","","","","","","","stim/H090.jpg","null","","",""
"html-keyboard-response","13","386064","0.0-8.0-1.0","8u9f0x9pjpyoc6t","1","6110edf4068624b36128a2f7","23","10/1997","in a relationship","Farsi","English, Pashto, French, Urdu","Female","Asian","No","Undergraduate degree","Yes, Undergraduate studies","N/A","N/A","N/A","0","3","4","0","4","0.766666676","stim/H160.jpg","76","76","0.866666672","3","1","4","","2","1","4","2","3","3","4","4","0","1","1","2","5","6","1","6","6","1","10","2","5","5","0","5","5","5","0","1","3","5","3","2","0","1","1","3","3","3","1","1","3","3","3","2","3","1","6","6","6","6","5","5","4","6","5","5","5","4","5","4","4","agree","4769.099999964237","","","","","","","","<div style=""font-size:60px;"">?</div>","76","1","Practice","0.5"
"image-keyboard-response","14","387071","0.0-8.0-0.1","8u9f0x9pjpyoc6t","1","6110edf4068624b36128a2f7","23","10/1997","in a relationship","Farsi","English, Pashto, French, Urdu","Female","Asian","No","Undergraduate degree","Yes, Undergraduate studies","N/A","N/A","N/A","0","3","4","0","4","0.766666676","stim/H160.jpg","76","76","0.866666672","3","1","4","","2","1","4","2","3","3","4","4","0","1","1","2","5","6","1","6","6","1","10","2","5","5","0","5","5","5","0","1","3","5","3","2","0","1","1","3","3","3","1","1","3","3","3","2","3","1","6","6","6","6","5","5","4","6","5","5","5","4","5","4","4","agree","null","","","","","","","","stim/T290.jpg","null","","",""
"html-keyboard-response","15","388458","0.0-8.0-1.1","8u9f0x9pjpyoc6t","1","6110edf4068624b36128a2f7","23","10/1997","in a relationship","Farsi","English, Pashto, French, Urdu","Female","Asian","No","Undergraduate degree","Yes, Undergraduate studies","N/A","N/A","N/A","0","3","4","0","4","0.766666676","stim/H160.jpg","76","76","0.866666672","3","1","4","","2","1","4","2","3","3","4","4","0","1","1","2","5","6","1","6","6","1","10","2","5","5","0","5","5","5","0","1","3","5","3","2","0","1","1","3","3","3","1","1","3","3","3","2","3","1","6","6","6","6","5","5","4","6","5","5","5","4","5","4","4","agree","1384.5","","","","","","","","<div style=""font-size:60px;"">?</div>","65","2","Practice","0.5"
"image-keyboard-response","16","389464","0.0-8.0-0.2","8u9f0x9pjpyoc6t","1","6110edf4068624b36128a2f7","23","10/1997","in a relationship","Farsi","English, Pashto, French, Urdu","Female","Asian","No","Undergraduate degree","Yes, Undergraduate studies","N/A","N/A","N/A","0","3","4","0","4","0.766666676","stim/H160.jpg","76","76","0.866666672","3","1","4","","2","1","4","2","3","3","4","4","0","1","1","2","5","6","1","6","6","1","10","2","5","5","0","5","5","5","0","1","3","5","3","2","0","1","1","3","3","3","1","1","3","3","3","2","3","1","6","6","6","6","5","5","4","6","5","5","5","4","5","4","4","agree","null","","","","","","","","stim/T170.jpg","null","","",""
"html-keyboard-response","17","390985","0.0-8.0-1.2","8u9f0x9pjpyoc6t","1","6110edf4068624b36128a2f7","23","10/1997","in a relationship","Farsi","English, Pashto, French, Urdu","Female","Asian","No","Undergraduate degree","Yes, Undergraduate studies","N/A","N/A","N/A","0","3","4","0","4","0.766666676","stim/H160.jpg","76","76","0.866666672","3","1","4","","2","1","4","2","3","3","4","4","0","1","1","2","5","6","1","6","6","1","10","2","5","5","0","5","5","5","0","1","3","5","3","2","0","1","1","3","3","3","1","1","3","3","3","2","3","1","6","6","6","6","5","5","4","6","5","5","5","4","5","4","4","agree","1519.0999999642372","","","","","","","","<div style=""font-size:60px;"">?</div>","65","3","Practice","0.5"
"image-keyboard-response","18","391992","0.0-8.0-0.3","8u9f0x9pjpyoc6t","1","6110edf4068624b36128a2f7","23","10/1997","in a relationship","Farsi","English, Pashto, French, Urdu","Female","Asian","No","Undergraduate degree","Yes, Undergraduate studies","N/A","N/A","N/A","0","3","4","0","4","0.766666676","stim/H160.jpg","76","76","0.866666672","3","1","4","","2","1","4","2","3","3","4","4","0","1","1","2","5","6","1","6","6","1","10","2","5","5","0","5","5","5","0","1","3","5","3","2","0","1","1","3","3","3","1","1","3","3","3","2","3","1","6","6","6","6","5","5","4","6","5","5","5","4","5","4","4","agree","null","","","","","","","","stim/T100.jpg","null","","",""
"html-keyboard-response","19","392455","0.0-8.0-1.3","8u9f0x9pjpyoc6t","1","6110edf4068624b36128a2f7","23","10/1997","in a relationship","Farsi","English, Pashto, French, Urdu","Female","Asian","No","Undergraduate degree","Yes, Undergraduate studies","N/A","N/A","N/A","0","3","4","0","4","0.766666676","stim/H160.jpg","76","76","0.866666672","3","1","4","","2","1","4","2","3","3","4","4","0","1","1","2","5","6","1","6","6","1","10","2","5","5","0","5","5","5","0","1","3","5","3","2","0","1","1","3","3","3","1","1","3","3","3","2","3","1","6","6","6","6","5","5","4","6","5","5","5","4","5","4","4","agree","460.9000000357628","","","","","","","","<div style=""font-size:60px;"">?</div>","65","4","Practice","0.5"
"image-keyboard-response","20","393461","0.0-8.0-0.4","8u9f0x9pjpyoc6t","1","6110edf4068624b36128a2f7","23","10/1997","in a relationship","Farsi","English, Pashto, French, Urdu","Female","Asian","No","Undergraduate degree","Yes, Undergraduate studies","N/A","N/A","N/A","0","3","4","0","4","0.766666676","stim/H160.jpg","76","76","0.866666672","3","1","4","","2","1","4","2","3","3","4","4","0","1","1","2","5","6","1","6","6","1","10","2","5","5","0","5","5","5","0","1","3","5","3","2","0","1","1","3","3","3","1","1","3","3","3","2","3","1","6","6","6","6","5","5","4","6","5","5","5","4","5","4","4","agree","null","","","","","","","","stim/H030.jpg","null","","",""
"html-keyboard-response","21","394041","0.0-8.0-1.4","8u9f0x9pjpyoc6t","1","6110edf4068624b36128a2f7","23","10/1997","in a relationship","Farsi","English, Pashto, French, Urdu","Female","Asian","No","Undergraduate degree","Yes, Undergraduate studies","N/A","N/A","N/A","0","3","4","0","4","0.766666676","stim/H160.jpg","76","76","0.866666672","3","1","4","","2","1","4","2","3","3","4","4","0","1","1","2","5","6","1","6","6","1","10","2","5","5","0","5","5","5","0","1","3","5","3","2","0","1","1","3","3","3","1","1","3","3","3","2","3","1","6","6","6","6","5","5","4","6","5","5","5","4","5","4","4","agree","577.8999999761581","","","","","","","","<div style=""font-size:60px;"">?</div>","76","5","Practice","0.5"
"image-keyboard-response","22","395051","0.0-8.0-0.5","8u9f0x9pjpyoc6t","1","6110edf4068624b36128a2f7","23","10/1997","in a relationship","Farsi","English, Pashto, French, Urdu","Female","Asian","No","Undergraduate degree","Yes, Undergraduate studies","N/A","N/A","N/A","0","3","4","0","4","0.766666676","stim/H160.jpg","76","76","0.866666672","3","1","4","","2","1","4","2","3","3","4","4","0","1","1","2","5","6","1","6","6","1","10","2","5","5","0","5","5","5","0","1","3","5","3","2","0","1","1","3","3","3","1","1","3","3","3","2","3","1","6","6","6","6","5","5","4","6","5","5","5","4","5","4","4","agree","null","","","","","","","","stim/T140.jpg","null","","",""
"html-keyboard-response","23","395543","0.0-8.0-1.5","8u9f0x9pjpyoc6t","1","6110edf4068624b36128a2f7","23","10/1997","in a relationship","Farsi","English, Pashto, French, Urdu","Female","Asian","No","Undergraduate degree","Yes, Undergraduate studies","N/A","N/A","N/A","0","3","4","0","4","0.766666676","stim/H160.jpg","76","76","0.866666672","3","1","4","","2","1","4","2","3","3","4","4","0","1","1","2","5","6","1","6","6","1","10","2","5","5","0","5","5","5","0","1","3","5","3","2","0","1","1","3","3","3","1","1","3","3","3","2","3","1","6","6","6","6","5","5","4","6","5","5","5","4","5","4","4","agree","490.4000000357628","","","","","","","","<div style=""font-size:60px;"">?</div>","65","6","Practice","0.5"
"image-keyboard-response","24","396554","0.0-8.0-0.6","8u9f0x9pjpyoc6t","1","6110edf4068624b36128a2f7","23","10/1997","in a relationship","Farsi","English, Pashto, French, Urdu","Female","Asian","No","Undergraduate degree","Yes, Undergraduate studies","N/A","N/A","N/A","0","3","4","0","4","0.766666676","stim/H160.jpg","76","76","0.866666672","3","1","4","","2","1","4","2","3","3","4","4","0","1","1","2","5","6","1","6","6","1","10","2","5","5","0","5","5","5","0","1","3","5","3","2","0","1","1","3","3","3","1","1","3","3","3","2","3","1","6","6","6","6","5","5","4","6","5","5","5","4","5","4","4","agree","null","","","","","","","","stim/T070.jpg","null","","",""
"html-keyboard-response","25","397589","0.0-8.0-1.6","8u9f0x9pjpyoc6t","1","6110edf4068624b36128a2f7","23","10/1997","in a relationship","Farsi","English, Pashto, French, Urdu","Female","Asian","No","Undergraduate degree","Yes, Undergraduate studies","N/A","N/A","N/A","0","3","4","0","4","0.766666676","stim/H160.jpg","76","76","0.866666672","3","1","4","","2","1","4","2","3","3","4","4","0","1","1","2","5","6","1","6","6","1","10","2","5","5","0","5","5","5","0","1","3","5","3","2","0","1","1","3","3","3","1","1","3","3","3","2","3","1","6","6","6","6","5","5","4","6","5","5","5","4","5","4","4","agree","1033.6000000238419","","","","","","","","<div style=""font-size:60px;"">?</div>","65","7","Practice","0.5"
"image-keyboard-response","26","398592","0.0-8.0-0.7","8u9f0x9pjpyoc6t","1","6110edf4068624b36128a2f7","23","10/1997","in a relationship","Farsi","English, Pashto, French, Urdu","Female","Asian","No","Undergraduate degree","Yes, Undergraduate studies","N/A","N/A","N/A","0","3","4","0","4","0.766666676","stim/H160.jpg","76","76","0.866666672","3","1","4","","2","1","4","2","3","3","4","4","0","1","1","2","5","6","1","6","6","1","10","2","5","5","0","5","5","5","0","1","3","5","3","2","0","1","1","3","3","3","1","1","3","3","3","2","3","1","6","6","6","6","5","5","4","6","5","5","5","4","5","4","4","agree","null","","","","","","","","stim/H250.jpg","null","","",""
"html-keyboard-response","27","398986","0.0-8.0-1.7","8u9f0x9pjpyoc6t","1","6110edf4068624b36128a2f7","23","10/1997","in a relationship","Farsi","English, Pashto, French, Urdu","Female","Asian","No","Undergraduate degree","Yes, Undergraduate studies","N/A","N/A","N/A","0","3","4","0","4","0.766666676","stim/H160.jpg","76","76","0.866666672","3","1","4","","2","1","4","2","3","3","4","4","0","1","1","2","5","6","1","6","6","1","10","2","5","5","0","5","5","5","0","1","3","5","3","2","0","1","1","3","3","3","1","1","3","3","3","2","3","1","6","6","6","6","5","5","4","6","5","5","5","4","5","4","4","agree","392.19999998807907","","","","","","","","<div style=""font-size:60px;"">?</div>","76","8","Practice","0.5"
"image-keyboard-response","28","399994","0.0-8.0-0.8","8u9f0x9pjpyoc6t","1","6110edf4068624b36128a2f7","23","10/1997","in a relationship","Farsi","English, Pashto, French, Urdu","Female","Asian","No","Undergraduate degree","Yes, Undergraduate studies","N/A","N/A","N/A","0","3","4","0","4","0.766666676","stim/H160.jpg","76","76","0.866666672","3","1","4","","2","1","4","2","3","3","4","4","0","1","1","2","5","6","1","6","6","1","10","2","5","5","0","5","5","5","0","1","3","5","3","2","0","1","1","3","3","3","1","1","3","3","3","2","3","1","6","6","6","6","5","5","4","6","5","5","5","4","5","4","4","agree","null","","","","","","","","stim/H220.jpg","null","","",""
"html-keyboard-response","29","400462","0.0-8.0-1.8","8u9f0x9pjpyoc6t","1","6110edf4068624b36128a2f7","23","10/1997","in a relationship","Farsi","English, Pashto, French, Urdu","Female","Asian","No","Undergraduate degree","Yes, Undergraduate studies","N/A","N/A","N/A","0","3","4","0","4","0.766666676","stim/H160.jpg","76","76","0.866666672","3","1","4","","2","1","4","2","3","3","4","4","0","1","1","2","5","6","1","6","6","1","10","2","5","5","0","5","5","5","0","1","3","5","3","2","0","1","1","3","3","3","1","1","3","3","3","2","3","1","6","6","6","6","5","5","4","6","5","5","5","4","5","4","4","agree","466","","","","","","","","<div style=""font-size:60px;"">?</div>","76","9","Practice","0.5"
"image-keyboard-response","30","401473","0.0-8.0-0.9","8u9f0x9pjpyoc6t","1","6110edf4068624b36128a2f7","23","10/1997","in a relationship","Farsi","English, Pashto, French, Urdu","Female","Asian","No","Undergraduate degree","Yes, Undergraduate studies","N/A","N/A","N/A","0","3","4","0","4","0.766666676","stim/H160.jpg","76","76","0.866666672","3","1","4","","2","1","4","2","3","3","4","4","0","1","1","2","5","6","1","6","6","1","10","2","5","5","0","5","5","5","0","1","3","5","3","2","0","1","1","3","3","3","1","1","3","3","3","2","3","1","6","6","6","6","5","5","4","6","5","5","5","4","5","4","4","agree","null","","","","","","","","stim/H070.jpg","null","","",""
"html-keyboard-response","31","401732","0.0-8.0-1.9","8u9f0x9pjpyoc6t","1","6110edf4068624b36128a2f7","23","10/1997","in a relationship","Farsi","English, Pashto, French, Urdu","Female","Asian","No","Undergraduate degree","Yes, Undergraduate studies","N/A","N/A","N/A","0","3","4","0","4","0.766666676","stim/H160.jpg","76","76","0.866666672","3","1","4","","2","1","4","2","3","3","4","4","0","1","1","2","5","6","1","6","6","1","10","2","5","5","0","5","5","5","0","1","3","5","3","2","0","1","1","3","3","3","1","1","3","3","3","2","3","1","6","6","6","6","5","5","4","6","5","5","5","4","5","4","4","agree","257.30000001192093","","","","","","","","<div style=""font-size:60px;"">?</div>","76","10","Practice","0.5"
"html-keyboard-response","32","415603","0.0-9.0","8u9f0x9pjpyoc6t","1","6110edf4068624b36128a2f7","23","10/1997","in a relationship","Farsi","English, Pashto, French, Urdu","Female","Asian","No","Undergraduate degree","Yes, Undergraduate studies","N/A","N/A","N/A","0","3","4","0","4","0.766666676","stim/H160.jpg","76","76","0.866666672","3","1","4","","2","1","4","2","3","3","4","4","0","1","1","2","5","6","1","6","6","1","10","2","5","5","0","5","5","5","0","1","3","5","3","2","0","1","1","3","3","3","1","1","3","3","3","2","3","1","6","6","6","6","5","5","4","6","5","5","5","4","5","4","4","agree","13366.799999952316","","","","","","","","<p>You have now completed the practice series.</p><p>If you have any questions, please reload this page and read the instructions again.</p><p>Otherwise, you're ready to begin the study!</p><p><strong>REMEMBER</strong>: Press <b>L </b>when you think the face is of Western origin, and <b>A </b>if not. </p><p>Press SPACE when you're ready to start!</p>","32","","",""
"html-keyboard-response","33","417976","0.0-10.0","8u9f0x9pjpyoc6t","1","6110edf4068624b36128a2f7","23","10/1997","in a relationship","Farsi","English, Pashto, French, Urdu","Female","Asian","No","Undergraduate degree","Yes, Undergraduate studies","N/A","N/A","N/A","0","3","4","0","4","0.766666676","stim/H160.jpg","76","76","0.866666672","3","1","4","","2","1","4","2","3","3","4","4","0","1","1","2","5","6","1","6","6","1","10","2","5","5","0","5","5","5","0","1","3","5","3","2","0","1","1","3","3","3","1","1","3","3","3","2","3","1","6","6","6","6","5","5","4","6","5","5","5","4","5","4","4","agree","1870.7999999523163","","","","","","","","<p>Block 1</p><p>Press SPACE to continue.</p>","32","","",""
"image-keyboard-response","34","419484","0.0-11.0-0.0","8u9f0x9pjpyoc6t","1","6110edf4068624b36128a2f7","23","10/1997","in a relationship","Farsi","English, Pashto, French, Urdu","Female","Asian","No","Undergraduate degree","Yes, Undergraduate studies","N/A","N/A","N/A","0","3","4","0","4","0.766666676","stim/H160.jpg","76","76","0.866666672","3","1","4","","2","1","4","2","3","3","4","4","0","1","1","2","5","6","1","6","6","1","10","2","5","5","0","5","5","5","0","1","3","5","3","2","0","1","1","3","3","3","1","1","3","3","3","2","3","1","6","6","6","6","5","5","4","6","5","5","5","4","5","4","4","agree","null","","","","","","","","stim/H120.jpg","null","","",""
"html-keyboard-response","35","420016","0.0-11.0-1.0","8u9f0x9pjpyoc6t","1","6110edf4068624b36128a2f7","23","10/1997","in a relationship","Farsi","English, Pashto, French, Urdu","Female","Asian","No","Undergraduate degree","Yes, Undergraduate studies","N/A","N/A","N/A","0","3","4","0","4","0.766666676","stim/H160.jpg","76","76","0.866666672","3","1","4","","2","1","4","2","3","3","4","4","0","1","1","2","5","6","1","6","6","1","10","2","5","5","0","5","5","5","0","1","3","5","3","2","0","1","1","3","3","3","1","1","3","3","3","2","3","1","6","6","6","6","5","5","4","6","5","5","5","4","5","4","4","agree","529.6000000238419","","","","","","","","<div style=""font-size:60px;"">?</div>","76","1","1","0.8"
"image-keyboard-response","36","421023","0.0-11.0-0.1","8u9f0x9pjpyoc6t","1","6110edf4068624b36128a2f7","23","10/1997","in a relationship","Farsi","English, Pashto, French, Urdu","Female","Asian","No","Undergraduate degree","Yes, Undergraduate studies","N/A","N/A","N/A","0","3","4","0","4","0.766666676","stim/H160.jpg","76","76","0.866666672","3","1","4","","2","1","4","2","3","3","4","4","0","1","1","2","5","6","1","6","6","1","10","2","5","5","0","5","5","5","0","1","3","5","3","2","0","1","1","3","3","3","1","1","3","3","3","2","3","1","6","6","6","6","5","5","4","6","5","5","5","4","5","4","4","agree","null","","","","","","","","stim/H050.jpg","null","","",""
"html-keyboard-response","37","421778","0.0-11.0-1.1","8u9f0x9pjpyoc6t","1","6110edf4068624b36128a2f7","23","10/1997","in a relationship","Farsi","English, Pashto, French, Urdu","Female","Asian","No","Undergraduate degree","Yes, Undergraduate studies","N/A","N/A","N/A","0","3","4","0","4","0.766666676","stim/H160.jpg","76","76","0.866666672","3","1","4","","2","1","4","2","3","3","4","4","0","1","1","2","5","6","1","6","6","1","10","2","5","5","0","5","5","5","0","1","3","5","3","2","0","1","1","3","3","3","1","1","3","3","3","2","3","1","6","6","6","6","5","5","4","6","5","5","5","4","5","4","4","agree","752.9000000357628","","","","","","","","<div style=""font-size:60px;"">?</div>","76","2","1","0.8"
"image-keyboard-response","38","422785","0.0-11.0-0.2","8u9f0x9pjpyoc6t","1","6110edf4068624b36128a2f7","23","10/1997","in a relationship","Farsi","English, Pashto, French, Urdu","Female","Asian","No","Undergraduate degree","Yes, Undergraduate studies","N/A","N/A","N/A","0","3","4","0","4","0.766666676","stim/H160.jpg","76","76","0.866666672","3","1","4","","2","1","4","2","3","3","4","4","0","1","1","2","5","6","1","6","6","1","10","2","5","5","0","5","5","5","0","1","3","5","3","2","0","1","1","3","3","3","1","1","3","3","3","2","3","1","6","6","6","6","5","5","4","6","5","5","5","4","5","4","4","agree","null","","","","","","","","stim/H280.jpg","null","","",""
"html-keyboard-response","39","423161","0.0-11.0-1.2","8u9f0x9pjpyoc6t","1","6110edf4068624b36128a2f7","23","10/1997","in a relationship","Farsi","English, Pashto, French, Urdu","Female","Asian","No","Undergraduate degree","Yes, Undergraduate studies","N/A","N/A","N/A","0","3","4","0","4","0.766666676","stim/H160.jpg","76","76","0.866666672","3","1","4","","2","1","4","2","3","3","4","4","0","1","1","2","5","6","1","6","6","1","10","2","5","5","0","5","5","5","0","1","3","5","3","2","0","1","1","3","3","3","1","1","3","3","3","2","3","1","6","6","6","6","5","5","4","6","5","5","5","4","5","4","4","agree","374.19999998807907","","","","","","","","<div style=""font-size:60px;"">?</div>","76","3","1","0.8"
"image-keyboard-response","40","424171","0.0-11.0-0.3","8u9f0x9pjpyoc6t","1","6110edf4068624b36128a2f7","23","10/1997","in a relationship","Farsi","English, Pashto, French, Urdu","Female","Asian","No","Undergraduate degree","Yes, Undergraduate studies","N/A","N/A","N/A","0","3","4","0","4","0.766666676","stim/H160.jpg","76","76","0.866666672","3","1","4","","2","1","4","2","3","3","4","4","0","1","1","2","5","6","1","6","6","1","10","2","5","5","0","5","5","5","0","1","3","5","3","2","0","1","1","3","3","3","1","1","3","3","3","2","3","1","6","6","6","6","5","5","4","6","5","5","5","4","5","4","4","agree","null","","","","","","","","stim/H160.jpg","null","","",""
"html-keyboard-response","41","424424","0.0-11.0-1.3","8u9f0x9pjpyoc6t","1","6110edf4068624b36128a2f7","23","10/1997","in a relationship","Farsi","English, Pashto, French, Urdu","Female","Asian","No","Undergraduate degree","Yes, Undergraduate studies","N/A","N/A","N/A","0","3","4","0","4","0.766666676","stim/H160.jpg","76","76","0.866666672","3","1","4","","2","1","4","2","3","3","4","4","0","1","1","2","5","6","1","6","6","1","10","2","5","5","0","5","5","5","0","1","3","5","3","2","0","1","1","3","3","3","1","1","3","3","3","2","3","1","6","6","6","6","5","5","4","6","5","5","5","4","5","4","4","agree","251.29999995231628","","","","","","","","<div style=""font-size:60px;"">?</div>","76","4","1","0.8"
"image-keyboard-response","42","425429","0.0-11.0-0.4","8u9f0x9pjpyoc6t","1","6110edf4068624b36128a2f7","23","10/1997","in a relationship","Farsi","English, Pashto, French, Urdu","Female","Asian","No","Undergraduate degree","Yes, Undergraduate studies","N/A","N/A","N/A","0","3","4","0","4","0.766666676","stim/H160.jpg","76","76","0.866666672","3","1","4","","2","1","4","2","3","3","4","4","0","1","1","2","5","6","1","6","6","1","10","2","5","5","0","5","5","5","0","1","3","5","3","2","0","1","1","3","3","3","1","1","3","3","3","2","3","1","6","6","6","6","5","5","4","6","5","5","5","4","5","4","4","agree","null","","","","","","","","stim/H280.jpg","null","","",""
"html-keyboard-response","43","425777","0.0-11.0-1.4","8u9f0x9pjpyoc6t","1","6110edf4068624b36128a2f7","23","10/1997","in a relationship","Farsi","English, Pashto, French, Urdu","Female","Asian","No","Undergraduate degree","Yes, Undergraduate studies","N/A","N/A","N/A","0","3","4","0","4","0.766666676","stim/H160.jpg","76","76","0.866666672","3","1","4","","2","1","4","2","3","3","4","4","0","1","1","2","5","6","1","6","6","1","10","2","5","5","0","5","5","5","0","1","3","5","3","2","0","1","1","3","3","3","1","1","3","3","3","2","3","1","6","6","6","6","5","5","4","6","5","5","5","4","5","4","4","agree","345.89999997615814","","","","","","","","<div style=""font-size:60px;"">?</div>","76","5","1","0.8"
"image-keyboard-response","44","426784","0.0-11.0-0.5","8u9f0x9pjpyoc6t","1","6110edf4068624b36128a2f7","23","10/1997","in a relationship","Farsi","English, Pashto, French, Urdu","Female","Asian","No","Undergraduate degree","Yes, Undergraduate studies","N/A","N/A","N/A","0","3","4","0","4","0.766666676","stim/H160.jpg","76","76","0.866666672","3","1","4","","2","1","4","2","3","3","4","4","0","1","1","2","5","6","1","6","6","1","10","2","5","5","0","5","5","5","0","1","3","5","3","2","0","1","1","3","3","3","1","1","3","3","3","2","3","1","6","6","6","6","5","5","4","6","5","5","5","4","5","4","4","agree","null","","","","","","","","stim/T170.jpg","null","","",""
"html-keyboard-response","45","427286","0.0-11.0-1.5","8u9f0x9pjpyoc6t","1","6110edf4068624b36128a2f7","23","10/1997","in a relationship","Farsi","English, Pashto, French, Urdu","Female","Asian","No","Undergraduate degree","Yes, Undergraduate studies","N/A","N/A","N/A","0","3","4","0","4","0.766666676","stim/H160.jpg","76","76","0.866666672","3","1","4","","2","1","4","2","3","3","4","4","0","1","1","2","5","6","1","6","6","1","10","2","5","5","0","5","5","5","0","1","3","5","3","2","0","1","1","3","3","3","1","1","3","3","3","2","3","1","6","6","6","6","5","5","4","6","5","5","5","4","5","4","4","agree","500.30000001192093","","","","","","","","<div style=""font-size:60px;"">?</div>","65","6","1","0.8"
"image-keyboard-response","46","428297","0.0-11.0-0.6","8u9f0x9pjpyoc6t","1","6110edf4068624b36128a2f7","23","10/1997","in a relationship","Farsi","English, Pashto, French, Urdu","Female","Asian","No","Undergraduate degree","Yes, Undergraduate studies","N/A","N/A","N/A","0","3","4","0","4","0.766666676","stim/H160.jpg","76","76","0.866666672","3","1","4","","2","1","4","2","3","3","4","4","0","1","1","2","5","6","1","6","6","1","10","2","5","5","0","5","5","5","0","1","3","5","3","2","0","1","1","3","3","3","1","1","3","3","3","2","3","1","6","6","6","6","5","5","4","6","5","5","5","4","5","4","4","agree","null","","","","","","","","stim/T120.jpg","null","","",""
"html-keyboard-response","47","428701","0.0-11.0-1.6","8u9f0x9pjpyoc6t","1","6110edf4068624b36128a2f7","23","10/1997","in a relationship","Farsi","English, Pashto, French, Urdu","Female","Asian","No","Undergraduate degree","Yes, Undergraduate studies","N/A","N/A","N/A","0","3","4","0","4","0.766666676","stim/H160.jpg","76","76","0.866666672","3","1","4","","2","1","4","2","3","3","4","4","0","1","1","2","5","6","1","6","6","1","10","2","5","5","0","5","5","5","0","1","3","5","3","2","0","1","1","3","3","3","1","1","3","3","3","2","3","1","6","6","6","6","5","5","4","6","5","5","5","4","5","4","4","agree","401.9000000357628","","","","","","","","<div style=""font-size:60px;"">?</div>","65","7","1","0.8"
"image-keyboard-response","48","429709","0.0-11.0-0.7","8u9f0x9pjpyoc6t","1","6110edf4068624b36128a2f7","23","10/1997","in a relationship","Farsi","English, Pashto, French, Urdu","Female","Asian","No","Undergraduate degree","Yes, Undergraduate studies","N/A","N/A","N/A","0","3","4","0","4","0.766666676","stim/H160.jpg","76","76","0.866666672","3","1","4","","2","1","4","2","3","3","4","4","0","1","1","2","5","6","1","6","6","1","10","2","5","5","0","5","5","5","0","1","3","5","3","2","0","1","1","3","3","3","1","1","3","3","3","2","3","1","6","6","6","6","5","5","4","6","5","5","5","4","5","4","4","agree","null","","","","","","","","stim/H180.jpg","null","","",""
"html-keyboard-response","49","430122","0.0-11.0-1.7","8u9f0x9pjpyoc6t","1","6110edf4068624b36128a2f7","23","10/1997","in a relationship","Farsi","English, Pashto, French, Urdu","Female","Asian","No","Undergraduate degree","Yes, Undergraduate studies","N/A","N/A","N/A","0","3","4","0","4","0.766666676","stim/H160.jpg","76","76","0.866666672","3","1","4","","2","1","4","2","3","3","4","4","0","1","1","2","5","6","1","6","6","1","10","2","5","5","0","5","5","5","0","1","3","5","3","2","0","1","1","3","3","3","1","1","3","3","3","2","3","1","6","6","6","6","5","5","4","6","5","5","5","4","5","4","4","agree","411.0999999642372","","","","","","","","<div style=""font-size:60px;"">?</div>","76","8","1","0.8"
"image-keyboard-response","50","431133","0.0-11.0-0.8","8u9f0x9pjpyoc6t","1","6110edf4068624b36128a2f7","23","10/1997","in a relationship","Farsi","English, Pashto, French, Urdu","Female","Asian","No","Undergraduate degree","Yes, Undergraduate studies","N/A","N/A","N/A","0","3","4","0","4","0.766666676","stim/H160.jpg","76","76","0.866666672","3","1","4","","2","1","4","2","3","3","4","4","0","1","1","2","5","6","1","6","6","1","10","2","5","5","0","5","5","5","0","1","3","5","3","2","0","1","1","3","3","3","1","1","3","3","3","2","3","1","6","6","6","6","5","5","4","6","5","5","5","4","5","4","4","agree","null","","","","","","","","stim/H160.jpg","null","","",""
"html-keyboard-response","51","431643","0.0-11.0-1.8","8u9f0x9pjpyoc6t","1","6110edf4068624b36128a2f7","23","10/1997","in a relationship","Farsi","English, Pashto, French, Urdu","Female","Asian","No","Undergraduate degree","Yes, Undergraduate studies","N/A","N/A","N/A","0","3","4","0","4","0.766666676","stim/H160.jpg","76","76","0.866666672","3","1","4","","2","1","4","2","3","3","4","4","0","1","1","2","5","6","1","6","6","1","10","2","5","5","0","5","5","5","0","1","3","5","3","2","0","1","1","3","3","3","1","1","3","3","3","2","3","1","6","6","6","6","5","5","4","6","5","5","5","4","5","4","4","agree","508.80000001192093","","","","","","","","<div style=""font-size:60px;"">?</div>","76","9","1","0.8"
"image-keyboard-response","52","432648","0.0-11.0-0.9","8u9f0x9pjpyoc6t","1","6110edf4068624b36128a2f7","23","10/1997","in a relationship","Farsi","English, Pashto, French, Urdu","Female","Asian","No","Undergraduate degree","Yes, Undergraduate studies","N/A","N/A","N/A","0","3","4","0","4","0.766666676","stim/H160.jpg","76","76","0.866666672","3","1","4","","2","1","4","2","3","3","4","4","0","1","1","2","5","6","1","6","6","1","10","2","5","5","0","5","5","5","0","1","3","5","3","2","0","1","1","3","3","3","1","1","3","3","3","2","3","1","6","6","6","6","5","5","4","6","5","5","5","4","5","4","4","agree","null","","","","","","","","stim/T170.jpg","null","","",""
"html-keyboard-response","53","433097","0.0-11.0-1.9","8u9f0x9pjpyoc6t","1","6110edf4068624b36128a2f7","23","10/1997","in a relationship","Farsi","English, Pashto, French, Urdu","Female","Asian","No","Undergraduate degree","Yes, Undergraduate studies","N/A","N/A","N/A","0","3","4","0","4","0.766666676","stim/H160.jpg","76","76","0.866666672","3","1","4","","2","1","4","2","3","3","4","4","0","1","1","2","5","6","1","6","6","1","10","2","5","5","0","5","5","5","0","1","3","5","3","2","0","1","1","3","3","3","1","1","3","3","3","2","3","1","6","6","6","6","5","5","4","6","5","5","5","4","5","4","4","agree","446.80000001192093","","","","","","","","<div style=""font-size:60px;"">?</div>","65","10","1","0.8"
"image-keyboard-response","54","434101","0.0-11.0-0.10","8u9f0x9pjpyoc6t","1","6110edf4068624b36128a2f7","23","10/1997","in a relationship","Farsi","English, Pashto, French, Urdu","Female","Asian","No","Undergraduate degree","Yes, Undergraduate studies","N/A","N/A","N/A","0","3","4","0","4","0.766666676","stim/H160.jpg","76","76","0.866666672","3","1","4","","2","1","4","2","3","3","4","4","0","1","1","2","5","6","1","6","6","1","10","2","5","5","0","5","5","5","0","1","3","5","3","2","0","1","1","3","3","3","1","1","3","3","3","2","3","1","6","6","6","6","5","5","4","6","5","5","5","4","5","4","4","agree","null","","","","","","","","stim/H110.jpg","null","","",""
"html-keyboard-response","55","434397","0.0-11.0-1.10","8u9f0x9pjpyoc6t","1","6110edf4068624b36128a2f7","23","10/1997","in a relationship","Farsi","English, Pashto, French, Urdu","Female","Asian","No","Undergraduate degree","Yes, Undergraduate studies","N/A","N/A","N/A","0","3","4","0","4","0.766666676","stim/H160.jpg","76","76","0.866666672","3","1","4","","2","1","4","2","3","3","4","4","0","1","1","2","5","6","1","6","6","1","10","2","5","5","0","5","5","5","0","1","3","5","3","2","0","1","1","3","3","3","1","1","3","3","3","2","3","1","6","6","6","6","5","5","4","6","5","5","5","4","5","4","4","agree","294","","","","","","","","<div style=""font-size:60px;"">?</div>","76","11","1","0.8"
"image-keyboard-response","56","435408","0.0-11.0-0.11","8u9f0x9pjpyoc6t","1","6110edf4068624b36128a2f7","23","10/1997","in a relationship","Farsi","English, Pashto, French, Urdu","Female","Asian","No","Undergraduate degree","Yes, Undergraduate studies","N/A","N/A","N/A","0","3","4","0","4","0.766666676","stim/H160.jpg","76","76","0.866666672","3","1","4","","2","1","4","2","3","3","4","4","0","1","1","2","5","6","1","6","6","1","10","2","5","5","0","5","5","5","0","1","3","5","3","2","0","1","1","3","3","3","1","1","3","3","3","2","3","1","6","6","6","6","5","5","4","6","5","5","5","4","5","4","4","agree","null","","","","","","","","stim/H230.jpg","null","","",""
"html-keyboard-response","57","436024","0.0-11.0-1.11","8u9f0x9pjpyoc6t","1","6110edf4068624b36128a2f7","23","10/1997","in a relationship","Farsi","English, Pashto, French, Urdu","Female","Asian","No","Undergraduate degree","Yes, Undergraduate studies","N/A","N/A","N/A","0","3","4","0","4","0.766666676","stim/H160.jpg","76","76","0.866666672","3","1","4","","2","1","4","2","3","3","4","4","0","1","1","2","5","6","1","6","6","1","10","2","5","5","0","5","5","5","0","1","3","5","3","2","0","1","1","3","3","3","1","1","3","3","3","2","3","1","6","6","6","6","5","5","4","6","5","5","5","4","5","4","4","agree","614.2000000476837","","","","","","","","<div style=""font-size:60px;"">?</div>","76","12","1","0.8"
"image-keyboard-response","58","437030","0.0-11.0-0.12","8u9f0x9pjpyoc6t","1","6110edf4068624b36128a2f7","23","10/1997","in a relationship","Farsi","English, Pashto, French, Urdu","Female","Asian","No","Undergraduate degree","Yes, Undergraduate studies","N/A","N/A","N/A","0","3","4","0","4","0.766666676","stim/H160.jpg","76","76","0.866666672","3","1","4","","2","1","4","2","3","3","4","4","0","1","1","2","5","6","1","6","6","1","10","2","5","5","0","5","5","5","0","1","3","5","3","2","0","1","1","3","3","3","1","1","3","3","3","2","3","1","6","6","6","6","5","5","4","6","5","5","5","4","5","4","4","agree","null","","","","","","","","stim/H150.jpg","null","","",""
"html-keyboard-response","59","437310","0.0-11.0-1.12","8u9f0x9pjpyoc6t","1","6110edf4068624b36128a2f7","23","10/1997","in a relationship","Farsi","English, Pashto, French, Urdu","Female","Asian","No","Undergraduate degree","Yes, Undergraduate studies","N/A","N/A","N/A","0","3","4","0","4","0.766666676","stim/H160.jpg","76","76","0.866666672","3","1","4","","2","1","4","2","3","3","4","4","0","1","1","2","5","6","1","6","6","1","10","2","5","5","0","5","5","5","0","1","3","5","3","2","0","1","1","3","3","3","1","1","3","3","3","2","3","1","6","6","6","6","5","5","4","6","5","5","5","4","5","4","4","agree","278","","","","","","","","<div style=""font-size:60px;"">?</div>","76","13","1","0.8"
"image-keyboard-response","60","438317","0.0-11.0-0.13","8u9f0x9pjpyoc6t","1","6110edf4068624b36128a2f7","23","10/1997","in a relationship","Farsi","English, Pashto, French, Urdu","Female","Asian","No","Undergraduate degree","Yes, Undergraduate studies","N/A","N/A","N/A","0","3","4","0","4","0.766666676","stim/H160.jpg","76","76","0.866666672","3","1","4","","2","1","4","2","3","3","4","4","0","1","1","2","5","6","1","6","6","1","10","2","5","5","0","5","5","5","0","1","3","5","3","2","0","1","1","3","3","3","1","1","3","3","3","2","3","1","6","6","6","6","5","5","4","6","5","5","5","4","5","4","4","agree","null","","","","","","","","stim/H120.jpg","null","","",""
"html-keyboard-response","61","438519","0.0-11.0-1.13","8u9f0x9pjpyoc6t","1","6110edf4068624b36128a2f7","23","10/1997","in a relationship","Farsi","English, Pashto, French, Urdu","Female","Asian","No","Undergraduate degree","Yes, Undergraduate studies","N/A","N/A","N/A","0","3","4","0","4","0.766666676","stim/H160.jpg","76","76","0.866666672","3","1","4","","2","1","4","2","3","3","4","4","0","1","1","2","5","6","1","6","6","1","10","2","5","5","0","5","5","5","0","1","3","5","3","2","0","1","1","3","3","3","1","1","3","3","3","2","3","1","6","6","6","6","5","5","4","6","5","5","5","4","5","4","4","agree","199.79999995231628","","","","","","","","<div style=""font-size:60px;"">?</div>","76","14","1","0.8"
"image-keyboard-response","62","439525","0.0-11.0-0.14","8u9f0x9pjpyoc6t","1","6110edf4068624b36128a2f7","23","10/1997","in a relationship","Farsi","English, Pashto, French, Urdu","Female","Asian","No","Undergraduate degree","Yes, Undergraduate studies","N/A","N/A","N/A","0","3","4","0","4","0.766666676","stim/H160.jpg","76","76","0.866666672","3","1","4","","2","1","4","2","3","3","4","4","0","1","1","2","5","6","1","6","6","1","10","2","5","5","0","5","5","5","0","1","3","5","3","2","0","1","1","3","3","3","1","1","3","3","3","2","3","1","6","6","6","6","5","5","4","6","5","5","5","4","5","4","4","agree","null","","","","","","","","stim/T140.jpg","null","","",""
"html-keyboard-response","63","440025","0.0-11.0-1.14","8u9f0x9pjpyoc6t","1","6110edf4068624b36128a2f7","23","10/1997","in a relationship","Farsi","English, Pashto, French, Urdu","Female","Asian","No","Undergraduate degree","Yes, Undergraduate studies","N/A","N/A","N/A","0","3","4","0","4","0.766666676","stim/H160.jpg","76","76","0.866666672","3","1","4","","2","1","4","2","3","3","4","4","0","1","1","2","5","6","1","6","6","1","10","2","5","5","0","5","5","5","0","1","3","5","3","2","0","1","1","3","3","3","1","1","3","3","3","2","3","1","6","6","6","6","5","5","4","6","5","5","5","4","5","4","4","agree","497.39999997615814","","","","","","","","<div style=""font-size:60px;"">?</div>","65","15","1","0.8"
"image-keyboard-response","64","441033","0.0-11.0-0.15","8u9f0x9pjpyoc6t","1","6110edf4068624b36128a2f7","23","10/1997","in a relationship","Farsi","English, Pashto, French, Urdu","Female","Asian","No","Undergraduate degree","Yes, Undergraduate studies","N/A","N/A","N/A","0","3","4","0","4","0.766666676","stim/H160.jpg","76","76","0.866666672","3","1","4","","2","1","4","2","3","3","4","4","0","1","1","2","5","6","1","6","6","1","10","2","5","5","0","5","5","5","0","1","3","5","3","2","0","1","1","3","3","3","1","1","3","3","3","2","3","1","6","6","6","6","5","5","4","6","5","5","5","4","5","4","4","agree","null","","","","","","","","stim/T170.jpg","null","","",""
"html-keyboard-response","65","441279","0.0-11.0-1.15","8u9f0x9pjpyoc6t","1","6110edf4068624b36128a2f7","23","10/1997","in a relationship","Farsi","English, Pashto, French, Urdu","Female","Asian","No","Undergraduate degree","Yes, Undergraduate studies","N/A","N/A","N/A","0","3","4","0","4","0.766666676","stim/H160.jpg","76","76","0.866666672","3","1","4","","2","1","4","2","3","3","4","4","0","1","1","2","5","6","1","6","6","1","10","2","5","5","0","5","5","5","0","1","3","5","3","2","0","1","1","3","3","3","1","1","3","3","3","2","3","1","6","6","6","6","5","5","4","6","5","5","5","4","5","4","4","agree","244","","","","","","","","<div style=""font-size:60px;"">?</div>","65","16","1","0.8"
"image-keyboard-response","66","442288","0.0-11.0-0.16","8u9f0x9pjpyoc6t","1","6110edf4068624b36128a2f7","23","10/1997","in a relationship","Farsi","English, Pashto, French, Urdu","Female","Asian","No","Undergraduate degree","Yes, Undergraduate studies","N/A","N/A","N/A","0","3","4","0","4","0.766666676","stim/H160.jpg","76","76","0.866666672","3","1","4","","2","1","4","2","3","3","4","4","0","1","1","2","5","6","1","6","6","1","10","2","5","5","0","5","5","5","0","1","3","5","3","2","0","1","1","3","3","3","1","1","3","3","3","2","3","1","6","6","6","6","5","5","4","6","5","5","5","4","5","4","4","agree","null","","","","","","","","stim/H070.jpg","null","","",""
"html-keyboard-response","67","443220","0.0-11.0-1.16","8u9f0x9pjpyoc6t","1","6110edf4068624b36128a2f7","23","10/1997","in a relationship","Farsi","English, Pashto, French, Urdu","Female","Asian","No","Undergraduate degree","Yes, Undergraduate studies","N/A","N/A","N/A","0","3","4","0","4","0.766666676","stim/H160.jpg","76","76","0.866666672","3","1","4","","2","1","4","2","3","3","4","4","0","1","1","2","5","6","1","6","6","1","10","2","5","5","0","5","5","5","0","1","3","5","3","2","0","1","1","3","3","3","1","1","3","3","3","2","3","1","6","6","6","6","5","5","4","6","5","5","5","4","5","4","4","agree","930.5","","","","","","","","<div style=""font-size:60px;"">?</div>","76","17","1","0.8"
"image-keyboard-response","68","444226","0.0-11.0-0.17","8u9f0x9pjpyoc6t","1","6110edf4068624b36128a2f7","23","10/1997","in a relationship","Farsi","English, Pashto, French, Urdu","Female","Asian","No","Undergraduate degree","Yes, Undergraduate studies","N/A","N/A","N/A","0","3","4","0","4","0.766666676","stim/H160.jpg","76","76","0.866666672","3","1","4","","2","1","4","2","3","3","4","4","0","1","1","2","5","6","1","6","6","1","10","2","5","5","0","5","5","5","0","1","3","5","3","2","0","1","1","3","3","3","1","1","3","3","3","2","3","1","6","6","6","6","5","5","4","6","5","5","5","4","5","4","4","agree","null","","","","","","","","stim/H210.jpg","null","","",""
"html-keyboard-response","69","444877","0.0-11.0-1.17","8u9f0x9pjpyoc6t","1","6110edf4068624b36128a2f7","23","10/1997","in a relationship","Farsi","English, Pashto, French, Urdu","Female","Asian","No","Undergraduate degree","Yes, Undergraduate studies","N/A","N/A","N/A","0","3","4","0","4","0.766666676","stim/H160.jpg","76","76","0.866666672","3","1","4","","2","1","4","2","3","3","4","4","0","1","1","2","5","6","1","6","6","1","10","2","5","5","0","5","5","5","0","1","3","5","3","2","0","1","1","3","3","3","1","1","3","3","3","2","3","1","6","6","6","6","5","5","4","6","5","5","5","4","5","4","4","agree","648.5","","","","","","","","<div style=""font-size:60px;"">?</div>","76","18","1","0.8"
"image-keyboard-response","70","445885","0.0-11.0-0.18","8u9f0x9pjpyoc6t","1","6110edf4068624b36128a2f7","23","10/1997","in a relationship","Farsi","English, Pashto, French, Urdu","Female","Asian","No","Undergraduate degree","Yes, Undergraduate studies","N/A","N/A","N/A","0","3","4","0","4","0.766666676","stim/H160.jpg","76","76","0.866666672","3","1","4","","2","1","4","2","3","3","4","4","0","1","1","2","5","6","1","6","6","1","10","2","5","5","0","5","5","5","0","1","3","5","3","2","0","1","1","3","3","3","1","1","3","3","3","2","3","1","6","6","6","6","5","5","4","6","5","5","5","4","5","4","4","agree","null","","","","","","","","stim/H210.jpg","null","","",""
"html-keyboard-response","71","446107","0.0-11.0-1.18","8u9f0x9pjpyoc6t","1","6110edf4068624b36128a2f7","23","10/1997","in a relationship","Farsi","English, Pashto, French, Urdu","Female","Asian","No","Undergraduate degree","Yes, Undergraduate studies","N/A","N/A","N/A","0","3","4","0","4","0.766666676","stim/H160.jpg","76","76","0.866666672","3","1","4","","2","1","4","2","3","3","4","4","0","1","1","2","5","6","1","6","6","1","10","2","5","5","0","5","5","5","0","1","3","5","3","2","0","1","1","3","3","3","1","1","3","3","3","2","3","1","6","6","6","6","5","5","4","6","5","5","5","4","5","4","4","agree","220.19999998807907","","","","","","","","<div style=""font-size:60px;"">?</div>","76","19","1","0.8"
"image-keyboard-response","72","447113","0.0-11.0-0.19","8u9f0x9pjpyoc6t","1","6110edf4068624b36128a2f7","23","10/1997","in a relationship","Farsi","English, Pashto, French, Urdu","Female","Asian","No","Undergraduate degree","Yes, Undergraduate studies","N/A","N/A","N/A","0","3","4","0","4","0.766666676","stim/H160.jpg","76","76","0.866666672","3","1","4","","2","1","4","2","3","3","4","4","0","1","1","2","5","6","1","6","6","1","10","2","5","5","0","5","5","5","0","1","3","5","3","2","0","1","1","3","3","3","1","1","3","3","3","2","3","1","6","6","6","6","5","5","4","6","5","5","5","4","5","4","4","agree","null","","","","","","","","stim/H100.jpg","null","","",""
"html-keyboard-response","73","447411","0.0-11.0-1.19","8u9f0x9pjpyoc6t","1","6110edf4068624b36128a2f7","23","10/1997","in a relationship","Farsi","English, Pashto, French, Urdu","Female","Asian","No","Undergraduate degree","Yes, Undergraduate studies","N/A","N/A","N/A","0","3","4","0","4","0.766666676","stim/H160.jpg","76","76","0.866666672","3","1","4","","2","1","4","2","3","3","4","4","0","1","1","2","5","6","1","6","6","1","10","2","5","5","0","5","5","5","0","1","3","5","3","2","0","1","1","3","3","3","1","1","3","3","3","2","3","1","6","6","6","6","5","5","4","6","5","5","5","4","5","4","4","agree","296.69999998807907","","","","","","","","<div style=""font-size:60px;"">?</div>","76","20","1","0.8"
"image-keyboard-response","74","448419","0.0-11.0-0.20","8u9f0x9pjpyoc6t","1","6110edf4068624b36128a2f7","23","10/1997","in a relationship","Farsi","English, Pashto, French, Urdu","Female","Asian","No","Undergraduate degree","Yes, Undergraduate studies","N/A","N/A","N/A","0","3","4","0","4","0.766666676","stim/H160.jpg","76","76","0.866666672","3","1","4","","2","1","4","2","3","3","4","4","0","1","1","2","5","6","1","6","6","1","10","2","5","5","0","5","5","5","0","1","3","5","3","2","0","1","1","3","3","3","1","1","3","3","3","2","3","1","6","6","6","6","5","5","4","6","5","5","5","4","5","4","4","agree","null","","","","","","","","stim/H020.jpg","null","","",""
"html-keyboard-response","75","448737","0.0-11.0-1.20","8u9f0x9pjpyoc6t","1","6110edf4068624b36128a2f7","23","10/1997","in a relationship","Farsi","English, Pashto, French, Urdu","Female","Asian","No","Undergraduate degree","Yes, Undergraduate studies","N/A","N/A","N/A","0","3","4","0","4","0.766666676","stim/H160.jpg","76","76","0.866666672","3","1","4","","2","1","4","2","3","3","4","4","0","1","1","2","5","6","1","6","6","1","10","2","5","5","0","5","5","5","0","1","3","5","3","2","0","1","1","3","3","3","1","1","3","3","3","2","3","1","6","6","6","6","5","5","4","6","5","5","5","4","5","4","4","agree","315.60000002384186","","","","","","","","<div style=""font-size:60px;"">?</div>","76","21","1","0.8"
"image-keyboard-response","76","449743","0.0-11.0-0.21","8u9f0x9pjpyoc6t","1","6110edf4068624b36128a2f7","23","10/1997","in a relationship","Farsi","English, Pashto, French, Urdu","Female","Asian","No","Undergraduate degree","Yes, Undergraduate studies","N/A","N/A","N/A","0","3","4","0","4","0.766666676","stim/H160.jpg","76","76","0.866666672","3","1","4","","2","1","4","2","3","3","4","4","0","1","1","2","5","6","1","6","6","1","10","2","5","5","0","5","5","5","0","1","3","5","3","2","0","1","1","3","3","3","1","1","3","3","3","2","3","1","6","6","6","6","5","5","4","6","5","5","5","4","5","4","4","agree","null","","","","","","","","stim/H220.jpg","null","","",""
"html-keyboard-response","77","450477","0.0-11.0-1.21","8u9f0x9pjpyoc6t","1","6110edf4068624b36128a2f7","23","10/1997","in a relationship","Farsi","English, Pashto, French, Urdu","Female","Asian","No","Undergraduate degree","Yes, Undergraduate studies","N/A","N/A","N/A","0","3","4","0","4","0.766666676","stim/H160.jpg","76","76","0.866666672","3","1","4","","2","1","4","2","3","3","4","4","0","1","1","2","5","6","1","6","6","1","10","2","5","5","0","5","5","5","0","1","3","5","3","2","0","1","1","3","3","3","1","1","3","3","3","2","3","1","6","6","6","6","5","5","4","6","5","5","5","4","5","4","4","agree","731.8999999761581","","","","","","","","<div style=""font-size:60px;"">?</div>","76","22","1","0.8"
"image-keyboard-response","78","451481","0.0-11.0-0.22","8u9f0x9pjpyoc6t","1","6110edf4068624b36128a2f7","23","10/1997","in a relationship","Farsi","English, Pashto, French, Urdu","Female","Asian","No","Undergraduate degree","Yes, Undergraduate studies","N/A","N/A","N/A","0","3","4","0","4","0.766666676","stim/H160.jpg","76","76","0.866666672","3","1","4","","2","1","4","2","3","3","4","4","0","1","1","2","5","6","1","6","6","1","10","2","5","5","0","5","5","5","0","1","3","5","3","2","0","1","1","3","3","3","1","1","3","3","3","2","3","1","6","6","6","6","5","5","4","6","5","5","5","4","5","4","4","agree","null","","","","","","","","stim/T010.jpg","null","","",""
"html-keyboard-response","79","451986","0.0-11.0-1.22","8u9f0x9pjpyoc6t","1","6110edf4068624b36128a2f7","23","10/1997","in a relationship","Farsi","English, Pashto, French, Urdu","Female","Asian","No","Undergraduate degree","Yes, Undergraduate studies","N/A","N/A","N/A","0","3","4","0","4","0.766666676","stim/H160.jpg","76","76","0.866666672","3","1","4","","2","1","4","2","3","3","4","4","0","1","1","2","5","6","1","6","6","1","10","2","5","5","0","5","5","5","0","1","3","5","3","2","0","1","1","3","3","3","1","1","3","3","3","2","3","1","6","6","6","6","5","5","4","6","5","5","5","4","5","4","4","agree","503.19999998807907","","","","","","","","<div style=""font-size:60px;"">?</div>","65","23","1","0.8"
"image-keyboard-response","80","452991","0.0-11.0-0.23","8u9f0x9pjpyoc6t","1","6110edf4068624b36128a2f7","23","10/1997","in a relationship","Farsi","English, Pashto, French, Urdu","Female","Asian","No","Undergraduate degree","Yes, Undergraduate studies","N/A","N/A","N/A","0","3","4","0","4","0.766666676","stim/H160.jpg","76","76","0.866666672","3","1","4","","2","1","4","2","3","3","4","4","0","1","1","2","5","6","1","6","6","1","10","2","5","5","0","5","5","5","0","1","3","5","3","2","0","1","1","3","3","3","1","1","3","3","3","2","3","1","6","6","6","6","5","5","4","6","5","5","5","4","5","4","4","agree","null","","","","","","","","stim/H300.jpg","null","","",""
"html-keyboard-response","81","453200","0.0-11.0-1.23","8u9f0x9pjpyoc6t","1","6110edf4068624b36128a2f7","23","10/1997","in a relationship","Farsi","English, Pashto, French, Urdu","Female","Asian","No","Undergraduate degree","Yes, Undergraduate studies","N/A","N/A","N/A","0","3","4","0","4","0.766666676","stim/H160.jpg","76","76","0.866666672","3","1","4","","2","1","4","2","3","3","4","4","0","1","1","2","5","6","1","6","6","1","10","2","5","5","0","5","5","5","0","1","3","5","3","2","0","1","1","3","3","3","1","1","3","3","3","2","3","1","6","6","6","6","5","5","4","6","5","5","5","4","5","4","4","agree","207.10000002384186","","","","","","","","<div style=""font-size:60px;"">?</div>","76","24","1","0.8"
"image-keyboard-response","82","454205","0.0-11.0-0.24","8u9f0x9pjpyoc6t","1","6110edf4068624b36128a2f7","23","10/1997","in a relationship","Farsi","English, Pashto, French, Urdu","Female","Asian","No","Undergraduate degree","Yes, Undergraduate studies","N/A","N/A","N/A","0","3","4","0","4","0.766666676","stim/H160.jpg","76","76","0.866666672","3","1","4","","2","1","4","2","3","3","4","4","0","1","1","2","5","6","1","6","6","1","10","2","5","5","0","5","5","5","0","1","3","5","3","2","0","1","1","3","3","3","1","1","3","3","3","2","3","1","6","6","6","6","5","5","4","6","5","5","5","4","5","4","4","agree","null","","","","","","","","stim/H190.jpg","null","","",""
"html-keyboard-response","83","454296","0.0-11.0-1.24","8u9f0x9pjpyoc6t","1","6110edf4068624b36128a2f7","23","10/1997","in a relationship","Farsi","English, Pashto, French, Urdu","Female","Asian","No","Undergraduate degree","Yes, Undergraduate studies","N/A","N/A","N/A","0","3","4","0","4","0.766666676","stim/H160.jpg","76","76","0.866666672","3","1","4","","2","1","4","2","3","3","4","4","0","1","1","2","5","6","1","6","6","1","10","2","5","5","0","5","5","5","0","1","3","5","3","2","0","1","1","3","3","3","1","1","3","3","3","2","3","1","6","6","6","6","5","5","4","6","5","5","5","4","5","4","4","agree","89.60000002384186","","","","","","","","<div style=""font-size:60px;"">?</div>","76","25","1","0.8"
"image-keyboard-response","84","455306","0.0-11.0-0.25","8u9f0x9pjpyoc6t","1","6110edf4068624b36128a2f7","23","10/1997","in a relationship","Farsi","English, Pashto, French, Urdu","Female","Asian","No","Undergraduate degree","Yes, Undergraduate studies","N/A","N/A","N/A","0","3","4","0","4","0.766666676","stim/H160.jpg","76","76","0.866666672","3","1","4","","2","1","4","2","3","3","4","4","0","1","1","2","5","6","1","6","6","1","10","2","5","5","0","5","5","5","0","1","3","5","3","2","0","1","1","3","3","3","1","1","3","3","3","2","3","1","6","6","6","6","5","5","4","6","5","5","5","4","5","4","4","agree","null","","","","","","","","stim/T030.jpg","null","","",""
"html-keyboard-response","85","455753","0.0-11.0-1.25","8u9f0x9pjpyoc6t","1","6110edf4068624b36128a2f7","23","10/1997","in a relationship","Farsi","English, Pashto, French, Urdu","Female","Asian","No","Undergraduate degree","Yes, Undergraduate studies","N/A","N/A","N/A","0","3","4","0","4","0.766666676","stim/H160.jpg","76","76","0.866666672","3","1","4","","2","1","4","2","3","3","4","4","0","1","1","2","5","6","1","6","6","1","10","2","5","5","0","5","5","5","0","1","3","5","3","2","0","1","1","3","3","3","1","1","3","3","3","2","3","1","6","6","6","6","5","5","4","6","5","5","5","4","5","4","4","agree","445.30000001192093","","","","","","","","<div style=""font-size:60px;"">?</div>","65","26","1","0.8"
"image-keyboard-response","86","456758","0.0-11.0-0.26","8u9f0x9pjpyoc6t","1","6110edf4068624b36128a2f7","23","10/1997","in a relationship","Farsi","English, Pashto, French, Urdu","Female","Asian","No","Undergraduate degree","Yes, Undergraduate studies","N/A","N/A","N/A","0","3","4","0","4","0.766666676","stim/H160.jpg","76","76","0.866666672","3","1","4","","2","1","4","2","3","3","4","4","0","1","1","2","5","6","1","6","6","1","10","2","5","5","0","5","5","5","0","1","3","5","3","2","0","1","1","3","3","3","1","1","3","3","3","2","3","1","6","6","6","6","5","5","4","6","5","5","5","4","5","4","4","agree","null","","","","","","","","stim/H170.jpg","null","","",""
"html-keyboard-response","87","456934","0.0-11.0-1.26","8u9f0x9pjpyoc6t","1","6110edf4068624b36128a2f7","23","10/1997","in a relationship","Farsi","English, Pashto, French, Urdu","Female","Asian","No","Undergraduate degree","Yes, Undergraduate studies","N/A","N/A","N/A","0","3","4","0","4","0.766666676","stim/H160.jpg","76","76","0.866666672","3","1","4","","2","1","4","2","3","3","4","4","0","1","1","2","5","6","1","6","6","1","10","2","5","5","0","5","5","5","0","1","3","5","3","2","0","1","1","3","3","3","1","1","3","3","3","2","3","1","6","6","6","6","5","5","4","6","5","5","5","4","5","4","4","agree","173.60000002384186","","","","","","","","<div style=""font-size:60px;"">?</div>","76","27","1","0.8"
"image-keyboard-response","88","457944","0.0-11.0-0.27","8u9f0x9pjpyoc6t","1","6110edf4068624b36128a2f7","23","10/1997","in a relationship","Farsi","English, Pashto, French, Urdu","Female","Asian","No","Undergraduate degree","Yes, Undergraduate studies","N/A","N/A","N/A","0","3","4","0","4","0.766666676","stim/H160.jpg","76","76","0.866666672","3","1","4","","2","1","4","2","3","3","4","4","0","1","1","2","5","6","1","6","6","1","10","2","5","5","0","5","5","5","0","1","3","5","3","2","0","1","1","3","3","3","1","1","3","3","3","2","3","1","6","6","6","6","5","5","4","6","5","5","5","4","5","4","4","agree","null","","","","","","","","stim/H060.jpg","null","","",""
"html-keyboard-response","89","458367","0.0-11.0-1.27","8u9f0x9pjpyoc6t","1","6110edf4068624b36128a2f7","23","10/1997","in a relationship","Farsi","English, Pashto, French, Urdu","Female","Asian","No","Undergraduate degree","Yes, Undergraduate studies","N/A","N/A","N/A","0","3","4","0","4","0.766666676","stim/H160.jpg","76","76","0.866666672","3","1","4","","2","1","4","2","3","3","4","4","0","1","1","2","5","6","1","6","6","1","10","2","5","5","0","5","5","5","0","1","3","5","3","2","0","1","1","3","3","3","1","1","3","3","3","2","3","1","6","6","6","6","5","5","4","6","5","5","5","4","5","4","4","agree","421.5","","","","","","","","<div style=""font-size:60px;"">?</div>","76","28","1","0.8"
"image-keyboard-response","90","459374","0.0-11.0-0.28","8u9f0x9pjpyoc6t","1","6110edf4068624b36128a2f7","23","10/1997","in a relationship","Farsi","English, Pashto, French, Urdu","Female","Asian","No","Undergraduate degree","Yes, Undergraduate studies","N/A","N/A","N/A","0","3","4","0","4","0.766666676","stim/H160.jpg","76","76","0.866666672","3","1","4","","2","1","4","2","3","3","4","4","0","1","1","2","5","6","1","6","6","1","10","2","5","5","0","5","5","5","0","1","3","5","3","2","0","1","1","3","3","3","1","1","3","3","3","2","3","1","6","6","6","6","5","5","4","6","5","5","5","4","5","4","4","agree","null","","","","","","","","stim/T100.jpg","null","","",""
"html-keyboard-response","91","459694","0.0-11.0-1.28","8u9f0x9pjpyoc6t","1","6110edf4068624b36128a2f7","23","10/1997","in a relationship","Farsi","English, Pashto, French, Urdu","Female","Asian","No","Undergraduate degree","Yes, Undergraduate studies","N/A","N/A","N/A","0","3","4","0","4","0.766666676","stim/H160.jpg","76","76","0.866666672","3","1","4","","2","1","4","2","3","3","4","4","0","1","1","2","5","6","1","6","6","1","10","2","5","5","0","5","5","5","0","1","3","5","3","2","0","1","1","3","3","3","1","1","3","3","3","2","3","1","6","6","6","6","5","5","4","6","5","5","5","4","5","4","4","agree","317.39999997615814","","","","","","","","<div style=""font-size:60px;"">?</div>","65","29","1","0.8"
"image-keyboard-response","92","460704","0.0-11.0-0.29","8u9f0x9pjpyoc6t","1","6110edf4068624b36128a2f7","23","10/1997","in a relationship","Farsi","English, Pashto, French, Urdu","Female","Asian","No","Undergraduate degree","Yes, Undergraduate studies","N/A","N/A","N/A","0","3","4","0","4","0.766666676","stim/H160.jpg","76","76","0.866666672","3","1","4","","2","1","4","2","3","3","4","4","0","1","1","2","5","6","1","6","6","1","10","2","5","5","0","5","5","5","0","1","3","5","3","2","0","1","1","3","3","3","1","1","3","3","3","2","3","1","6","6","6","6","5","5","4","6","5","5","5","4","5","4","4","agree","null","","","","","","","","stim/H080.jpg","null","","",""
"html-keyboard-response","93","461034","0.0-11.0-1.29","8u9f0x9pjpyoc6t","1","6110edf4068624b36128a2f7","23","10/1997","in a relationship","Farsi","English, Pashto, French, Urdu","Female","Asian","No","Undergraduate degree","Yes, Undergraduate studies","N/A","N/A","N/A","0","3","4","0","4","0.766666676","stim/H160.jpg","76","76","0.866666672","3","1","4","","2","1","4","2","3","3","4","4","0","1","1","2","5","6","1","6","6","1","10","2","5","5","0","5","5","5","0","1","3","5","3","2","0","1","1","3","3","3","1","1","3","3","3","2","3","1","6","6","6","6","5","5","4","6","5","5","5","4","5","4","4","agree","329","","","","","","","","<div style=""font-size:60px;"">?</div>","76","30","1","0.8"
"image-keyboard-response","94","462041","0.0-11.0-0.30","8u9f0x9pjpyoc6t","1","6110edf4068624b36128a2f7","23","10/1997","in a relationship","Farsi","English, Pashto, French, Urdu","Female","Asian","No","Undergraduate degree","Yes, Undergraduate studies","N/A","N/A","N/A","0","3","4","0","4","0.766666676","stim/H160.jpg","76","76","0.866666672","3","1","4","","2","1","4","2","3","3","4","4","0","1","1","2","5","6","1","6","6","1","10","2","5","5","0","5","5","5","0","1","3","5","3","2","0","1","1","3","3","3","1","1","3","3","3","2","3","1","6","6","6","6","5","5","4","6","5","5","5","4","5","4","4","agree","null","","","","","","","","stim/H100.jpg","null","","",""
"html-keyboard-response","95","462805","0.0-11.0-1.30","8u9f0x9pjpyoc6t","1","6110edf4068624b36128a2f7","23","10/1997","in a relationship","Farsi","English, Pashto, French, Urdu","Female","Asian","No","Undergraduate degree","Yes, Undergraduate studies","N/A","N/A","N/A","0","3","4","0","4","0.766666676","stim/H160.jpg","76","76","0.866666672","3","1","4","","2","1","4","2","3","3","4","4","0","1","1","2","5","6","1","6","6","1","10","2","5","5","0","5","5","5","0","1","3","5","3","2","0","1","1","3","3","3","1","1","3","3","3","2","3","1","6","6","6","6","5","5","4","6","5","5","5","4","5","4","4","agree","761.8000000119209","","","","","","","","<div style=""font-size:60px;"">?</div>","65","31","1","0.8"
"image-keyboard-response","96","463809","0.0-11.0-0.31","8u9f0x9pjpyoc6t","1","6110edf4068624b36128a2f7","23","10/1997","in a relationship","Farsi","English, Pashto, French, Urdu","Female","Asian","No","Undergraduate degree","Yes, Undergraduate studies","N/A","N/A","N/A","0","3","4","0","4","0.766666676","stim/H160.jpg","76","76","0.866666672","3","1","4","","2","1","4","2","3","3","4","4","0","1","1","2","5","6","1","6","6","1","10","2","5","5","0","5","5","5","0","1","3","5","3","2","0","1","1","3","3","3","1","1","3","3","3","2","3","1","6","6","6","6","5","5","4","6","5","5","5","4","5","4","4","agree","null","","","","","","","","stim/T160.jpg","null","","",""
"html-keyboard-response","97","464104","0.0-11.0-1.31","8u9f0x9pjpyoc6t","1","6110edf4068624b36128a2f7","23","10/1997","in a relationship","Farsi","English, Pashto, French, Urdu","Female","Asian","No","Undergraduate degree","Yes, Undergraduate studies","N/A","N/A","N/A","0","3","4","0","4","0.766666676","stim/H160.jpg","76","76","0.866666672","3","1","4","","2","1","4","2","3","3","4","4","0","1","1","2","5","6","1","6","6","1","10","2","5","5","0","5","5","5","0","1","3","5","3","2","0","1","1","3","3","3","1","1","3","3","3","2","3","1","6","6","6","6","5","5","4","6","5","5","5","4","5","4","4","agree","293.69999998807907","","","","","","","","<div style=""font-size:60px;"">?</div>","65","32","1","0.8"
"image-keyboard-response","98","465112","0.0-11.0-0.32","8u9f0x9pjpyoc6t","1","6110edf4068624b36128a2f7","23","10/1997","in a relationship","Farsi","English, Pashto, French, Urdu","Female","Asian","No","Undergraduate degree","Yes, Undergraduate studies","N/A","N/A","N/A","0","3","4","0","4","0.766666676","stim/H160.jpg","76","76","0.866666672","3","1","4","","2","1","4","2","3","3","4","4","0","1","1","2","5","6","1","6","6","1","10","2","5","5","0","5","5","5","0","1","3","5","3","2","0","1","1","3","3","3","1","1","3","3","3","2","3","1","6","6","6","6","5","5","4","6","5","5","5","4","5","4","4","agree","null","","","","","","","","stim/H250.jpg","null","","",""
"html-keyboard-response","99","465574","0.0-11.0-1.32","8u9f0x9pjpyoc6t","1","6110edf4068624b36128a2f7","23","10/1997","in a relationship","Farsi","English, Pashto, French, Urdu","Female","Asian","No","Undergraduate degree","Yes, Undergraduate studies","N/A","N/A","N/A","0","3","4","0","4","0.766666676","stim/H160.jpg","76","76","0.866666672","3","1","4","","2","1","4","2","3","3","4","4","0","1","1","2","5","6","1","6","6","1","10","2","5","5","0","5","5","5","0","1","3","5","3","2","0","1","1","3","3","3","1","1","3","3","3","2","3","1","6","6","6","6","5","5","4","6","5","5","5","4","5","4","4","agree","460.80000001192093","","","","","","","","<div style=""font-size:60px;"">?</div>","76","33","1","0.8"
"image-keyboard-response","100","466579","0.0-11.0-0.33","8u9f0x9pjpyoc6t","1","6110edf4068624b36128a2f7","23","10/1997","in a relationship","Farsi","English, Pashto, French, Urdu","Female","Asian","No","Undergraduate degree","Yes, Undergraduate studies","N/A","N/A","N/A","0","3","4","0","4","0.766666676","stim/H160.jpg","76","76","0.866666672","3","1","4","","2","1","4","2","3","3","4","4","0","1","1","2","5","6","1","6","6","1","10","2","5","5","0","5","5","5","0","1","3","5","3","2","0","1","1","3","3","3","1","1","3","3","3","2","3","1","6","6","6","6","5","5","4","6","5","5","5","4","5","4","4","agree","null","","","","","","","","stim/H160.jpg","null","","",""
"html-keyboard-response","101","466854","0.0-11.0-1.33","8u9f0x9pjpyoc6t","1","6110edf4068624b36128a2f7","23","10/1997","in a relationship","Farsi","English, Pashto, French, Urdu","Female","Asian","No","Undergraduate degree","Yes, Undergraduate studies","N/A","N/A","N/A","0","3","4","0","4","0.766666676","stim/H160.jpg","76","76","0.866666672","3","1","4","","2","1","4","2","3","3","4","4","0","1","1","2","5","6","1","6","6","1","10","2","5","5","0","5","5","5","0","1","3","5","3","2","0","1","1","3","3","3","1","1","3","3","3","2","3","1","6","6","6","6","5","5","4","6","5","5","5","4","5","4","4","agree","273.5999999642372","","","","","","","","<div style=""font-size:60px;"">?</div>","76","34","1","0.8"
"image-keyboard-response","102","467862","0.0-11.0-0.34","8u9f0x9pjpyoc6t","1","6110edf4068624b36128a2f7","23","10/1997","in a relationship","Farsi","English, Pashto, French, Urdu","Female","Asian","No","Undergraduate degree","Yes, Undergraduate studies","N/A","N/A","N/A","0","3","4","0","4","0.766666676","stim/H160.jpg","76","76","0.866666672","3","1","4","","2","1","4","2","3","3","4","4","0","1","1","2","5","6","1","6","6","1","10","2","5","5","0","5","5","5","0","1","3","5","3","2","0","1","1","3","3","3","1","1","3","3","3","2","3","1","6","6","6","6","5","5","4","6","5","5","5","4","5","4","4","agree","null","","","","","","","","stim/H160.jpg","null","","",""
"html-keyboard-response","103","468188","0.0-11.0-1.34","8u9f0x9pjpyoc6t","1","6110edf4068624b36128a2f7","23","10/1997","in a relationship","Farsi","English, Pashto, French, Urdu","Female","Asian","No","Undergraduate degree","Yes, Undergraduate studies","N/A","N/A","N/A","0","3","4","0","4","0.766666676","stim/H160.jpg","76","76","0.866666672","3","1","4","","2","1","4","2","3","3","4","4","0","1","1","2","5","6","1","6","6","1","10","2","5","5","0","5","5","5","0","1","3","5","3","2","0","1","1","3","3","3","1","1","3","3","3","2","3","1","6","6","6","6","5","5","4","6","5","5","5","4","5","4","4","agree","323.30000001192093","","","","","","","","<div style=""font-size:60px;"">?</div>","76","35","1","0.8"
"image-keyboard-response","104","469197","0.0-11.0-0.35","8u9f0x9pjpyoc6t","1","6110edf4068624b36128a2f7","23","10/1997","in a relationship","Farsi","English, Pashto, French, Urdu","Female","Asian","No","Undergraduate degree","Yes, Undergraduate studies","N/A","N/A","N/A","0","3","4","0","4","0.766666676","stim/H160.jpg","76","76","0.866666672","3","1","4","","2","1","4","2","3","3","4","4","0","1","1","2","5","6","1","6","6","1","10","2","5","5","0","5","5","5","0","1","3","5","3","2","0","1","1","3","3","3","1","1","3","3","3","2","3","1","6","6","6","6","5","5","4","6","5","5","5","4","5","4","4","agree","null","","","","","","","","stim/H070.jpg","null","","",""
"html-keyboard-response","105","469581","0.0-11.0-1.35","8u9f0x9pjpyoc6t","1","6110edf4068624b36128a2f7","23","10/1997","in a relationship","Farsi","English, Pashto, French, Urdu","Female","Asian","No","Undergraduate degree","Yes, Undergraduate studies","N/A","N/A","N/A","0","3","4","0","4","0.766666676","stim/H160.jpg","76","76","0.866666672","3","1","4","","2","1","4","2","3","3","4","4","0","1","1","2","5","6","1","6","6","1","10","2","5","5","0","5","5","5","0","1","3","5","3","2","0","1","1","3","3","3","1","1","3","3","3","2","3","1","6","6","6","6","5","5","4","6","5","5","5","4","5","4","4","agree","381.5","","","","","","","","<div style=""font-size:60px;"">?</div>","76","36","1","0.8"
"image-keyboard-response","106","470592","0.0-11.0-0.36","8u9f0x9pjpyoc6t","1","6110edf4068624b36128a2f7","23","10/1997","in a relationship","Farsi","English, Pashto, French, Urdu","Female","Asian","No","Undergraduate degree","Yes, Undergraduate studies","N/A","N/A","N/A","0","3","4","0","4","0.766666676","stim/H160.jpg","76","76","0.866666672","3","1","4","","2","1","4","2","3","3","4","4","0","1","1","2","5","6","1","6","6","1","10","2","5","5","0","5","5","5","0","1","3","5","3","2","0","1","1","3","3","3","1","1","3","3","3","2","3","1","6","6","6","6","5","5","4","6","5","5","5","4","5","4","4","agree","null","","","","","","","","stim/H200.jpg","null","","",""
"html-keyboard-response","107","471366","0.0-11.0-1.36","8u9f0x9pjpyoc6t","1","6110edf4068624b36128a2f7","23","10/1997","in a relationship","Farsi","English, Pashto, French, Urdu","Female","Asian","No","Undergraduate degree","Yes, Undergraduate studies","N/A","N/A","N/A","0","3","4","0","4","0.766666676","stim/H160.jpg","76","76","0.866666672","3","1","4","","2","1","4","2","3","3","4","4","0","1","1","2","5","6","1","6","6","1","10","2","5","5","0","5","5","5","0","1","3","5","3","2","0","1","1","3","3","3","1","1","3","3","3","2","3","1","6","6","6","6","5","5","4","6","5","5","5","4","5","4","4","agree","772.3999999761581","","","","","","","","<div style=""font-size:60px;"">?</div>","76","37","1","0.8"
"image-keyboard-response","108","472374","0.0-11.0-0.37","8u9f0x9pjpyoc6t","1","6110edf4068624b36128a2f7","23","10/1997","in a relationship","Farsi","English, Pashto, French, Urdu","Female","Asian","No","Undergraduate degree","Yes, Undergraduate studies","N/A","N/A","N/A","0","3","4","0","4","0.766666676","stim/H160.jpg","76","76","0.866666672","3","1","4","","2","1","4","2","3","3","4","4","0","1","1","2","5","6","1","6","6","1","10","2","5","5","0","5","5","5","0","1","3","5","3","2","0","1","1","3","3","3","1","1","3","3","3","2","3","1","6","6","6","6","5","5","4","6","5","5","5","4","5","4","4","agree","null","","","","","","","","stim/T190.jpg","null","","",""
"html-keyboard-response","109","472811","0.0-11.0-1.37","8u9f0x9pjpyoc6t","1","6110edf4068624b36128a2f7","23","10/1997","in a relationship","Farsi","English, Pashto, French, Urdu","Female","Asian","No","Undergraduate degree","Yes, Undergraduate studies","N/A","N/A","N/A","0","3","4","0","4","0.766666676","stim/H160.jpg","76","76","0.866666672","3","1","4","","2","1","4","2","3","3","4","4","0","1","1","2","5","6","1","6","6","1","10","2","5","5","0","5","5","5","0","1","3","5","3","2","0","1","1","3","3","3","1","1","3","3","3","2","3","1","6","6","6","6","5","5","4","6","5","5","5","4","5","4","4","agree","435.19999998807907","","","","","","","","<div style=""font-size:60px;"">?</div>","65","38","1","0.8"
"image-keyboard-response","110","473819","0.0-11.0-0.38","8u9f0x9pjpyoc6t","1","6110edf4068624b36128a2f7","23","10/1997","in a relationship","Farsi","English, Pashto, French, Urdu","Female","Asian","No","Undergraduate degree","Yes, Undergraduate studies","N/A","N/A","N/A","0","3","4","0","4","0.766666676","stim/H160.jpg","76","76","0.866666672","3","1","4","","2","1","4","2","3","3","4","4","0","1","1","2","5","6","1","6","6","1","10","2","5","5","0","5","5","5","0","1","3","5","3","2","0","1","1","3","3","3","1","1","3","3","3","2","3","1","6","6","6","6","5","5","4","6","5","5","5","4","5","4","4","agree","null","","","","","","","","stim/H250.jpg","null","","",""
"html-keyboard-response","111","474686","0.0-11.0-1.38","8u9f0x9pjpyoc6t","1","6110edf4068624b36128a2f7","23","10/1997","in a relationship","Farsi","English, Pashto, French, Urdu","Female","Asian","No","Undergraduate degree","Yes, Undergraduate studies","N/A","N/A","N/A","0","3","4","0","4","0.766666676","stim/H160.jpg","76","76","0.866666672","3","1","4","","2","1","4","2","3","3","4","4","0","1","1","2","5","6","1","6","6","1","10","2","5","5","0","5","5","5","0","1","3","5","3","2","0","1","1","3","3","3","1","1","3","3","3","2","3","1","6","6","6","6","5","5","4","6","5","5","5","4","5","4","4","agree","865.1999999880791","","","","","","","","<div style=""font-size:60px;"">?</div>","76","39","1","0.8"
"image-keyboard-response","112","475691","0.0-11.0-0.39","8u9f0x9pjpyoc6t","1","6110edf4068624b36128a2f7","23","10/1997","in a relationship","Farsi","English, Pashto, French, Urdu","Female","Asian","No","Undergraduate degree","Yes, Undergraduate studies","N/A","N/A","N/A","0","3","4","0","4","0.766666676","stim/H160.jpg","76","76","0.866666672","3","1","4","","2","1","4","2","3","3","4","4","0","1","1","2","5","6","1","6","6","1","10","2","5","5","0","5","5","5","0","1","3","5","3","2","0","1","1","3","3","3","1","1","3","3","3","2","3","1","6","6","6","6","5","5","4","6","5","5","5","4","5","4","4","agree","null","","","","","","","","stim/H180.jpg","null","","",""
"html-keyboard-response","113","475919","0.0-11.0-1.39","8u9f0x9pjpyoc6t","1","6110edf4068624b36128a2f7","23","10/1997","in a relationship","Farsi","English, Pashto, French, Urdu","Female","Asian","No","Undergraduate degree","Yes, Undergraduate studies","N/A","N/A","N/A","0","3","4","0","4","0.766666676","stim/H160.jpg","76","76","0.866666672","3","1","4","","2","1","4","2","3","3","4","4","0","1","1","2","5","6","1","6","6","1","10","2","5","5","0","5","5","5","0","1","3","5","3","2","0","1","1","3","3","3","1","1","3","3","3","2","3","1","6","6","6","6","5","5","4","6","5","5","5","4","5","4","4","agree","225.80000001192093","","","","","","","","<div style=""font-size:60px;"">?</div>","76","40","1","0.8"
"image-keyboard-response","114","476925","0.0-11.0-0.40","8u9f0x9pjpyoc6t","1","6110edf4068624b36128a2f7","23","10/1997","in a relationship","Farsi","English, Pashto, French, Urdu","Female","Asian","No","Undergraduate degree","Yes, Undergraduate studies","N/A","N/A","N/A","0","3","4","0","4","0.766666676","stim/H160.jpg","76","76","0.866666672","3","1","4","","2","1","4","2","3","3","4","4","0","1","1","2","5","6","1","6","6","1","10","2","5","5","0","5","5","5","0","1","3","5","3","2","0","1","1","3","3","3","1","1","3","3","3","2","3","1","6","6","6","6","5","5","4","6","5","5","5","4","5","4","4","agree","null","","","","","","","","stim/H010.jpg","null","","",""
"html-keyboard-response","115","477427","0.0-11.0-1.40","8u9f0x9pjpyoc6t","1","6110edf4068624b36128a2f7","23","10/1997","in a relationship","Farsi","English, Pashto, French, Urdu","Female","Asian","No","Undergraduate degree","Yes, Undergraduate studies","N/A","N/A","N/A","0","3","4","0","4","0.766666676","stim/H160.jpg","76","76","0.866666672","3","1","4","","2","1","4","2","3","3","4","4","0","1","1","2","5","6","1","6","6","1","10","2","5","5","0","5","5","5","0","1","3","5","3","2","0","1","1","3","3","3","1","1","3","3","3","2","3","1","6","6","6","6","5","5","4","6","5","5","5","4","5","4","4","agree","499.80000001192093","","","","","","","","<div style=""font-size:60px;"">?</div>","65","41","1","0.8"
"image-keyboard-response","116","478433","0.0-11.0-0.41","8u9f0x9pjpyoc6t","1","6110edf4068624b36128a2f7","23","10/1997","in a relationship","Farsi","English, Pashto, French, Urdu","Female","Asian","No","Undergraduate degree","Yes, Undergraduate studies","N/A","N/A","N/A","0","3","4","0","4","0.766666676","stim/H160.jpg","76","76","0.866666672","3","1","4","","2","1","4","2","3","3","4","4","0","1","1","2","5","6","1","6","6","1","10","2","5","5","0","5","5","5","0","1","3","5","3","2","0","1","1","3","3","3","1","1","3","3","3","2","3","1","6","6","6","6","5","5","4","6","5","5","5","4","5","4","4","agree","null","","","","","","","","stim/H270.jpg","null","","",""
"html-keyboard-response","117","478721","0.0-11.0-1.41","8u9f0x9pjpyoc6t","1","6110edf4068624b36128a2f7","23","10/1997","in a relationship","Farsi","English, Pashto, French, Urdu","Female","Asian","No","Undergraduate degree","Yes, Undergraduate studies","N/A","N/A","N/A","0","3","4","0","4","0.766666676","stim/H160.jpg","76","76","0.866666672","3","1","4","","2","1","4","2","3","3","4","4","0","1","1","2","5","6","1","6","6","1","10","2","5","5","0","5","5","5","0","1","3","5","3","2","0","1","1","3","3","3","1","1","3","3","3","2","3","1","6","6","6","6","5","5","4","6","5","5","5","4","5","4","4","agree","286.2999999523163","","","","","","","","<div style=""font-size:60px;"">?</div>","76","42","1","0.8"
"image-keyboard-response","118","479727","0.0-11.0-0.42","8u9f0x9pjpyoc6t","1","6110edf4068624b36128a2f7","23","10/1997","in a relationship","Farsi","English, Pashto, French, Urdu","Female","Asian","No","Undergraduate degree","Yes, Undergraduate studies","N/A","N/A","N/A","0","3","4","0","4","0.766666676","stim/H160.jpg","76","76","0.866666672","3","1","4","","2","1","4","2","3","3","4","4","0","1","1","2","5","6","1","6","6","1","10","2","5","5","0","5","5","5","0","1","3","5","3","2","0","1","1","3","3","3","1","1","3","3","3","2","3","1","6","6","6","6","5","5","4","6","5","5","5","4","5","4","4","agree","null","","","","","","","","stim/H120.jpg","null","","",""
"html-keyboard-response","119","480193","0.0-11.0-1.42","8u9f0x9pjpyoc6t","1","6110edf4068624b36128a2f7","23","10/1997","in a relationship","Farsi","English, Pashto, French, Urdu","Female","Asian","No","Undergraduate degree","Yes, Undergraduate studies","N/A","N/A","N/A","0","3","4","0","4","0.766666676","stim/H160.jpg","76","76","0.866666672","3","1","4","","2","1","4","2","3","3","4","4","0","1","1","2","5","6","1","6","6","1","10","2","5","5","0","5","5","5","0","1","3","5","3","2","0","1","1","3","3","3","1","1","3","3","3","2","3","1","6","6","6","6","5","5","4","6","5","5","5","4","5","4","4","agree","464.10000002384186","","","","","","","","<div style=""font-size:60px;"">?</div>","76","43","1","0.8"
"image-keyboard-response","120","481201","0.0-11.0-0.43","8u9f0x9pjpyoc6t","1","6110edf4068624b36128a2f7","23","10/1997","in a relationship","Farsi","English, Pashto, French, Urdu","Female","Asian","No","Undergraduate degree","Yes, Undergraduate studies","N/A","N/A","N/A","0","3","4","0","4","0.766666676","stim/H160.jpg","76","76","0.866666672","3","1","4","","2","1","4","2","3","3","4","4","0","1","1","2","5","6","1","6","6","1","10","2","5","5","0","5","5","5","0","1","3","5","3","2","0","1","1","3","3","3","1","1","3","3","3","2","3","1","6","6","6","6","5","5","4","6","5","5","5","4","5","4","4","agree","null","","","","","","","","stim/H240.jpg","null","","",""
"html-keyboard-response","121","481463","0.0-11.0-1.43","8u9f0x9pjpyoc6t","1","6110edf4068624b36128a2f7","23","10/1997","in a relationship","Farsi","English, Pashto, French, Urdu","Female","Asian","No","Undergraduate degree","Yes, Undergraduate studies","N/A","N/A","N/A","0","3","4","0","4","0.766666676","stim/H160.jpg","76","76","0.866666672","3","1","4","","2","1","4","2","3","3","4","4","0","1","1","2","5","6","1","6","6","1","10","2","5","5","0","5","5","5","0","1","3","5","3","2","0","1","1","3","3","3","1","1","3","3","3","2","3","1","6","6","6","6","5","5","4","6","5","5","5","4","5","4","4","agree","260.9000000357628","","","","","","","","<div style=""font-size:60px;"">?</div>","76","44","1","0.8"
"image-keyboard-response","122","482468","0.0-11.0-0.44","8u9f0x9pjpyoc6t","1","6110edf4068624b36128a2f7","23","10/1997","in a relationship","Farsi","English, Pashto, French, Urdu","Female","Asian","No","Undergraduate degree","Yes, Undergraduate studies","N/A","N/A","N/A","0","3","4","0","4","0.766666676","stim/H160.jpg","76","76","0.866666672","3","1","4","","2","1","4","2","3","3","4","4","0","1","1","2","5","6","1","6","6","1","10","2","5","5","0","5","5","5","0","1","3","5","3","2","0","1","1","3","3","3","1","1","3","3","3","2","3","1","6","6","6","6","5","5","4","6","5","5","5","4","5","4","4","agree","null","","","","","","","","stim/H040.jpg","null","","",""
"html-keyboard-response","123","483462","0.0-11.0-1.44","8u9f0x9pjpyoc6t","1","6110edf4068624b36128a2f7","23","10/1997","in a relationship","Farsi","English, Pashto, French, Urdu","Female","Asian","No","Undergraduate degree","Yes, Undergraduate studies","N/A","N/A","N/A","0","3","4","0","4","0.766666676","stim/H160.jpg","76","76","0.866666672","3","1","4","","2","1","4","2","3","3","4","4","0","1","1","2","5","6","1","6","6","1","10","2","5","5","0","5","5","5","0","1","3","5","3","2","0","1","1","3","3","3","1","1","3","3","3","2","3","1","6","6","6","6","5","5","4","6","5","5","5","4","5","4","4","agree","991.5999999642372","","","","","","","","<div style=""font-size:60px;"">?</div>","65","45","1","0.8"
"image-keyboard-response","124","484468","0.0-11.0-0.45","8u9f0x9pjpyoc6t","1","6110edf4068624b36128a2f7","23","10/1997","in a relationship","Farsi","English, Pashto, French, Urdu","Female","Asian","No","Undergraduate degree","Yes, Undergraduate studies","N/A","N/A","N/A","0","3","4","0","4","0.766666676","stim/H160.jpg","76","76","0.866666672","3","1","4","","2","1","4","2","3","3","4","4","0","1","1","2","5","6","1","6","6","1","10","2","5","5","0","5","5","5","0","1","3","5","3","2","0","1","1","3","3","3","1","1","3","3","3","2","3","1","6","6","6","6","5","5","4","6","5","5","5","4","5","4","4","agree","null","","","","","","","","stim/H130.jpg","null","","",""
"html-keyboard-response","125","484749","0.0-11.0-1.45","8u9f0x9pjpyoc6t","1","6110edf4068624b36128a2f7","23","10/1997","in a relationship","Farsi","English, Pashto, French, Urdu","Female","Asian","No","Undergraduate degree","Yes, Undergraduate studies","N/A","N/A","N/A","0","3","4","0","4","0.766666676","stim/H160.jpg","76","76","0.866666672","3","1","4","","2","1","4","2","3","3","4","4","0","1","1","2","5","6","1","6","6","1","10","2","5","5","0","5","5","5","0","1","3","5","3","2","0","1","1","3","3","3","1","1","3","3","3","2","3","1","6","6","6","6","5","5","4","6","5","5","5","4","5","4","4","agree","279.19999998807907","","","","","","","","<div style=""font-size:60px;"">?</div>","76","46","1","0.8"
"image-keyboard-response","126","485759","0.0-11.0-0.46","8u9f0x9pjpyoc6t","1","6110edf4068624b36128a2f7","23","10/1997","in a relationship","Farsi","English, Pashto, French, Urdu","Female","Asian","No","Undergraduate degree","Yes, Undergraduate studies","N/A","N/A","N/A","0","3","4","0","4","0.766666676","stim/H160.jpg","76","76","0.866666672","3","1","4","","2","1","4","2","3","3","4","4","0","1","1","2","5","6","1","6","6","1","10","2","5","5","0","5","5","5","0","1","3","5","3","2","0","1","1","3","3","3","1","1","3","3","3","2","3","1","6","6","6","6","5","5","4","6","5","5","5","4","5","4","4","agree","null","","","","","","","","stim/H250.jpg","null","","",""
"html-keyboard-response","127","485897","0.0-11.0-1.46","8u9f0x9pjpyoc6t","1","6110edf4068624b36128a2f7","23","10/1997","in a relationship","Farsi","English, Pashto, French, Urdu","Female","Asian","No","Undergraduate degree","Yes, Undergraduate studies","N/A","N/A","N/A","0","3","4","0","4","0.766666676","stim/H160.jpg","76","76","0.866666672","3","1","4","","2","1","4","2","3","3","4","4","0","1","1","2","5","6","1","6","6","1","10","2","5","5","0","5","5","5","0","1","3","5","3","2","0","1","1","3","3","3","1","1","3","3","3","2","3","1","6","6","6","6","5","5","4","6","5","5","5","4","5","4","4","agree","135","","","","","","","","<div style=""font-size:60px;"">?</div>","76","47","1","0.8"
"image-keyboard-response","128","486904","0.0-11.0-0.47","8u9f0x9pjpyoc6t","1","6110edf4068624b36128a2f7","23","10/1997","in a relationship","Farsi","English, Pashto, French, Urdu","Female","Asian","No","Undergraduate degree","Yes, Undergraduate studies","N/A","N/A","N/A","0","3","4","0","4","0.766666676","stim/H160.jpg","76","76","0.866666672","3","1","4","","2","1","4","2","3","3","4","4","0","1","1","2","5","6","1","6","6","1","10","2","5","5","0","5","5","5","0","1","3","5","3","2","0","1","1","3","3","3","1","1","3","3","3","2","3","1","6","6","6","6","5","5","4","6","5","5","5","4","5","4","4","agree","null","","","","","","","","stim/H110.jpg","null","","",""
"html-keyboard-response","129","487040","0.0-11.0-1.47","8u9f0x9pjpyoc6t","1","6110edf4068624b36128a2f7","23","10/1997","in a relationship","Farsi","English, Pashto, French, Urdu","Female","Asian","No","Undergraduate degree","Yes, Undergraduate studies","N/A","N/A","N/A","0","3","4","0","4","0.766666676","stim/H160.jpg","76","76","0.866666672","3","1","4","","2","1","4","2","3","3","4","4","0","1","1","2","5","6","1","6","6","1","10","2","5","5","0","5","5","5","0","1","3","5","3","2","0","1","1","3","3","3","1","1","3","3","3","2","3","1","6","6","6","6","5","5","4","6","5","5","5","4","5","4","4","agree","134.80000001192093","","","","","","","","<div style=""font-size:60px;"">?</div>","76","48","1","0.8"
"image-keyboard-response","130","488049","0.0-11.0-0.48","8u9f0x9pjpyoc6t","1","6110edf4068624b36128a2f7","23","10/1997","in a relationship","Farsi","English, Pashto, French, Urdu","Female","Asian","No","Undergraduate degree","Yes, Undergraduate studies","N/A","N/A","N/A","0","3","4","0","4","0.766666676","stim/H160.jpg","76","76","0.866666672","3","1","4","","2","1","4","2","3","3","4","4","0","1","1","2","5","6","1","6","6","1","10","2","5","5","0","5","5","5","0","1","3","5","3","2","0","1","1","3","3","3","1","1","3","3","3","2","3","1","6","6","6","6","5","5","4","6","5","5","5","4","5","4","4","agree","null","","","","","","","","stim/H110.jpg","null","","",""
"html-keyboard-response","131","488450","0.0-11.0-1.48","8u9f0x9pjpyoc6t","1","6110edf4068624b36128a2f7","23","10/1997","in a relationship","Farsi","English, Pashto, French, Urdu","Female","Asian","No","Undergraduate degree","Yes, Undergraduate studies","N/A","N/A","N/A","0","3","4","0","4","0.766666676","stim/H160.jpg","76","76","0.866666672","3","1","4","","2","1","4","2","3","3","4","4","0","1","1","2","5","6","1","6","6","1","10","2","5","5","0","5","5","5","0","1","3","5","3","2","0","1","1","3","3","3","1","1","3","3","3","2","3","1","6","6","6","6","5","5","4","6","5","5","5","4","5","4","4","agree","398.39999997615814","","","","","","","","<div style=""font-size:60px;"">?</div>","76","49","1","0.8"
"image-keyboard-response","132","489458","0.0-11.0-0.49","8u9f0x9pjpyoc6t","1","6110edf4068624b36128a2f7","23","10/1997","in a relationship","Farsi","English, Pashto, French, Urdu","Female","Asian","No","Undergraduate degree","Yes, Undergraduate studies","N/A","N/A","N/A","0","3","4","0","4","0.766666676","stim/H160.jpg","76","76","0.866666672","3","1","4","","2","1","4","2","3","3","4","4","0","1","1","2","5","6","1","6","6","1","10","2","5","5","0","5","5","5","0","1","3","5","3","2","0","1","1","3","3","3","1","1","3","3","3","2","3","1","6","6","6","6","5","5","4","6","5","5","5","4","5","4","4","agree","null","","","","","","","","stim/H140.jpg","null","","",""
"html-keyboard-response","133","489735","0.0-11.0-1.49","8u9f0x9pjpyoc6t","1","6110edf4068624b36128a2f7","23","10/1997","in a relationship","Farsi","English, Pashto, French, Urdu","Female","Asian","No","Undergraduate degree","Yes, Undergraduate studies","N/A","N/A","N/A","0","3","4","0","4","0.766666676","stim/H160.jpg","76","76","0.866666672","3","1","4","","2","1","4","2","3","3","4","4","0","1","1","2","5","6","1","6","6","1","10","2","5","5","0","5","5","5","0","1","3","5","3","2","0","1","1","3","3","3","1","1","3","3","3","2","3","1","6","6","6","6","5","5","4","6","5","5","5","4","5","4","4","agree","275","","","","","","","","<div style=""font-size:60px;"">?</div>","76","50","1","0.8"
"html-keyboard-response","134","503262","0.0-12.0","8u9f0x9pjpyoc6t","1","6110edf4068624b36128a2f7","23","10/1997","in a relationship","Farsi","English, Pashto, French, Urdu","Female","Asian","No","Undergraduate degree","Yes, Undergraduate studies","N/A","N/A","N/A","0","3","4","0","4","0.766666676","stim/H160.jpg","76","76","0.866666672","3","1","4","","2","1","4","2","3","3","4","4","0","1","1","2","5","6","1","6","6","1","10","2","5","5","0","5","5","5","0","1","3","5","3","2","0","1","1","3","3","3","1","1","3","3","3","2","3","1","6","6","6","6","5","5","4","6","5","5","5","4","5","4","4","agree","13024.099999964237","","","","","","","","<p>Block 2</p><p>Press SPACE to continue.</p>","32","","",""
"image-keyboard-response","135","504771","0.0-13.0-0.0","8u9f0x9pjpyoc6t","1","6110edf4068624b36128a2f7","23","10/1997","in a relationship","Farsi","English, Pashto, French, Urdu","Female","Asian","No","Undergraduate degree","Yes, Undergraduate studies","N/A","N/A","N/A","0","3","4","0","4","0.766666676","stim/H160.jpg","76","76","0.866666672","3","1","4","","2","1","4","2","3","3","4","4","0","1","1","2","5","6","1","6","6","1","10","2","5","5","0","5","5","5","0","1","3","5","3","2","0","1","1","3","3","3","1","1","3","3","3","2","3","1","6","6","6","6","5","5","4","6","5","5","5","4","5","4","4","agree","null","","","","","","","","stim/H250.jpg","null","","",""
"html-keyboard-response","136","505300","0.0-13.0-1.0","8u9f0x9pjpyoc6t","1","6110edf4068624b36128a2f7","23","10/1997","in a relationship","Farsi","English, Pashto, French, Urdu","Female","Asian","No","Undergraduate degree","Yes, Undergraduate studies","N/A","N/A","N/A","0","3","4","0","4","0.766666676","stim/H160.jpg","76","76","0.866666672","3","1","4","","2","1","4","2","3","3","4","4","0","1","1","2","5","6","1","6","6","1","10","2","5","5","0","5","5","5","0","1","3","5","3","2","0","1","1","3","3","3","1","1","3","3","3","2","3","1","6","6","6","6","5","5","4","6","5","5","5","4","5","4","4","agree","526.8000000119209","","","","","","","","<div style=""font-size:60px;"">?</div>","76","1","2","0.8"
"image-keyboard-response","137","506306","0.0-13.0-0.1","8u9f0x9pjpyoc6t","1","6110edf4068624b36128a2f7","23","10/1997","in a relationship","Farsi","English, Pashto, French, Urdu","Female","Asian","No","Undergraduate degree","Yes, Undergraduate studies","N/A","N/A","N/A","0","3","4","0","4","0.766666676","stim/H160.jpg","76","76","0.866666672","3","1","4","","2","1","4","2","3","3","4","4","0","1","1","2","5","6","1","6","6","1","10","2","5","5","0","5","5","5","0","1","3","5","3","2","0","1","1","3","3","3","1","1","3","3","3","2","3","1","6","6","6","6","5","5","4","6","5","5","5","4","5","4","4","agree","null","","","","","","","","stim/T250.jpg","null","","",""
"html-keyboard-response","138","506628","0.0-13.0-1.1","8u9f0x9pjpyoc6t","1","6110edf4068624b36128a2f7","23","10/1997","in a relationship","Farsi","English, Pashto, French, Urdu","Female","Asian","No","Undergraduate degree","Yes, Undergraduate studies","N/A","N/A","N/A","0","3","4","0","4","0.766666676","stim/H160.jpg","76","76","0.866666672","3","1","4","","2","1","4","2","3","3","4","4","0","1","1","2","5","6","1","6","6","1","10","2","5","5","0","5","5","5","0","1","3","5","3","2","0","1","1","3","3","3","1","1","3","3","3","2","3","1","6","6","6","6","5","5","4","6","5","5","5","4","5","4","4","agree","319.80000001192093","","","","","","","","<div style=""font-size:60px;"">?</div>","65","2","2","0.8"
"image-keyboard-response","139","507635","0.0-13.0-0.2","8u9f0x9pjpyoc6t","1","6110edf4068624b36128a2f7","23","10/1997","in a relationship","Farsi","English, Pashto, French, Urdu","Female","Asian","No","Undergraduate degree","Yes, Undergraduate studies","N/A","N/A","N/A","0","3","4","0","4","0.766666676","stim/H160.jpg","76","76","0.866666672","3","1","4","","2","1","4","2","3","3","4","4","0","1","1","2","5","6","1","6","6","1","10","2","5","5","0","5","5","5","0","1","3","5","3","2","0","1","1","3","3","3","1","1","3","3","3","2","3","1","6","6","6","6","5","5","4","6","5","5","5","4","5","4","4","agree","null","","","","","","","","stim/H040.jpg","null","","",""
"html-keyboard-response","140","508358","0.0-13.0-1.2","8u9f0x9pjpyoc6t","1","6110edf4068624b36128a2f7","23","10/1997","in a relationship","Farsi","English, Pashto, French, Urdu","Female","Asian","No","Undergraduate degree","Yes, Undergraduate studies","N/A","N/A","N/A","0","3","4","0","4","0.766666676","stim/H160.jpg","76","76","0.866666672","3","1","4","","2","1","4","2","3","3","4","4","0","1","1","2","5","6","1","6","6","1","10","2","5","5","0","5","5","5","0","1","3","5","3","2","0","1","1","3","3","3","1","1","3","3","3","2","3","1","6","6","6","6","5","5","4","6","5","5","5","4","5","4","4","agree","720.6000000238419","","","","","","","","<div style=""font-size:60px;"">?</div>","65","3","2","0.8"
