"trial_type","trial_index","time_elapsed","internal_node_id","subject","condition","ID","age","dob","marital","natlang","olang","gender","ethnicity","mental_check","educ_l","educ_c","mental","mentdrug","mentpos","sesparent","sesstudent","sesladder","educ_hs","educ_ce","s1self","chosenbody","s1selfjudge","s2selfjudge","s2self","sspc_01","sspc_02","pas_01","pas_02","pas_03","pas_04","pas_05","pas_06","pas_07","pas_08","pas_09","pas_10","pas_11","pas_12","pas_13","pas_14","contact_01","contact_02","contact_03","contact_04","contact_05","contact_06","contact_07","contact_08","contact_09","idnd_01","idnd_02","idnd_03","idnd_04","idnd_05","idnd_06","idnd_07","idnd_08","catch_01","adig_01","adig_02","adig_03","plcs_01","plcs_02","plcs_03","plcs_04","plcs_05","plcs_06","plcs_07","plcs_08","plcs_09","plcs_10","plcs_11","plcs_12","catch_02","wwwp_01","wwwp_02","wwwp_03","wwwp_04","wwwp_05","wwwp_06","wwwp_07","wwwp_08","wwwp_09","lsns_fam_1","lsns_fam_2","lsns_fam_3","lsns_fri_1","lsns_fri_2","lsns_fri_3","debrief","rt","url","success","view_history","responses","question_order","final_value","start_value","stimulus","key_press","trial","block","freq"
"pavlovia","0","3","0.0-0.0","u2ykeg6xor01cfe","1","61003e2c597feda3779db930","23","10/1997","Single","Mandarin Chinese","English, Cantonese, Korean","Female","Asian","No","Undergraduate degree","No, currently not in school","N/A","N/A","N/A","5","7","5","3","1","0.5166666860000001","stim/H010.jpg","76","76","0.533333332","3","2","3","2","2","3","3","2","2","2","3","3","1","2","1","1","4","4","1","5","6","1","1","0","3","4","0","5","4","4","1","3","3","5","1","1","3","5","5","2","5","3","5","5","3","3","3","3","4","1","3","1","1","0","0","0","1","4","0","4","3","1","4","3","3","agree","","","","","","","","","","","","",""
"external-html","1","15425","0.0-1.0","u2ykeg6xor01cfe","1","61003e2c597feda3779db930","23","10/1997","Single","Mandarin Chinese","English, Cantonese, Korean","Female","Asian","No","Undergraduate degree","No, currently not in school","N/A","N/A","N/A","5","7","5","3","1","0.5166666860000001","stim/H010.jpg","76","76","0.533333332","3","2","3","2","2","3","3","2","2","2","3","3","1","2","1","1","4","4","1","5","6","1","1","0","3","4","0","5","4","4","1","3","3","5","1","1","3","5","5","2","5","3","5","5","3","3","3","3","4","1","3","1","1","0","0","0","1","4","0","4","3","1","4","3","3","agree","15217.5","sub/html/consent.html","","","","","","","","","","",""
"fullscreen","2","233936","0.0-2.0","u2ykeg6xor01cfe","1","61003e2c597feda3779db930","23","10/1997","Single","Mandarin Chinese","English, Cantonese, Korean","Female","Asian","No","Undergraduate degree","No, currently not in school","N/A","N/A","N/A","5","7","5","3","1","0.5166666860000001","stim/H010.jpg","76","76","0.533333332","3","2","3","2","2","3","3","2","2","2","3","3","1","2","1","1","4","4","1","5","6","1","1","0","3","4","0","5","4","4","1","3","3","5","1","1","3","5","5","2","5","3","5","5","3","3","3","3","4","1","3","1","1","0","0","0","1","4","0","4","3","1","4","3","3","agree","","","true","","","","","","","","","",""
"instructions","3","241221","0.0-3.0","u2ykeg6xor01cfe","1","61003e2c597feda3779db930","23","10/1997","Single","Mandarin Chinese","English, Cantonese, Korean","Female","Asian","No","Undergraduate degree","No, currently not in school","N/A","N/A","N/A","5","7","5","3","1","0.5166666860000001","stim/H010.jpg","76","76","0.533333332","3","2","3","2","2","3","3","2","2","2","3","3","1","2","1","1","4","4","1","5","6","1","1","0","3","4","0","5","4","4","1","3","3","5","1","1","3","5","5","2","5","3","5","5","3","3","3","3","4","1","3","1","1","0","0","0","1","4","0","4","3","1","4","3","3","agree","7285.20000000298","","","[{""page_index"":0,""viewing_time"":3302.0999999940395},{""page_index"":1,""viewing_time"":3982.4000000059605}]","","","","","","","","",""
"survey-text","4","300881","0.0-4.0-0.0","u2ykeg6xor01cfe","1","61003e2c597feda3779db930","23","10/1997","Single","Mandarin Chinese","English, Cantonese, Korean","Female","Asian","No","Undergraduate degree","No, currently not in school","N/A","N/A","N/A","5","7","5","3","1","0.5166666860000001","stim/H010.jpg","76","76","0.533333332","3","2","3","2","2","3","3","2","2","2","3","3","1","2","1","1","4","4","1","5","6","1","1","0","3","4","0","5","4","4","1","3","3","5","1","1","3","5","5","2","5","3","5","5","3","3","3","3","4","1","3","1","1","0","0","0","1","4","0","4","3","1","4","3","3","agree","59651.20000000298","","","","{""ID"":""61003e2c597feda3779db930"",""age"":""23"",""dob"":""10/1997"",""marital"":""Single"",""natlang"":""Mandarin Chinese"",""olang"":""English, Cantonese, Korean""}","","","","","","","",""
"survey-multi-choice","5","313189","0.0-4.0-1.0","u2ykeg6xor01cfe","1","61003e2c597feda3779db930","23","10/1997","Single","Mandarin Chinese","English, Cantonese, Korean","Female","Asian","No","Undergraduate degree","No, currently not in school","N/A","N/A","N/A","5","7","5","3","1","0.5166666860000001","stim/H010.jpg","76","76","0.533333332","3","2","3","2","2","3","3","2","2","2","3","3","1","2","1","1","4","4","1","5","6","1","1","0","3","4","0","5","4","4","1","3","3","5","1","1","3","5","5","2","5","3","5","5","3","3","3","3","4","1","3","1","1","0","0","0","1","4","0","4","3","1","4","3","3","agree","12299.09999999404","","","","{""gender"":""Female"",""ethnicity"":""Asian"",""mental_check"":""No"",""educ_l"":""Undergraduate degree"",""educ_c"":""No, currently not in school""}","[0,1,2,3,4]","","","","","","",""
"survey-text","6","331199","0.0-4.0-2.0","u2ykeg6xor01cfe","1","61003e2c597feda3779db930","23","10/1997","Single","Mandarin Chinese","English, Cantonese, Korean","Female","Asian","No","Undergraduate degree","No, currently not in school","N/A","N/A","N/A","5","7","5","3","1","0.5166666860000001","stim/H010.jpg","76","76","0.533333332","3","2","3","2","2","3","3","2","2","2","3","3","1","2","1","1","4","4","1","5","6","1","1","0","3","4","0","5","4","4","1","3","3","5","1","1","3","5","5","2","5","3","5","5","3","3","3","3","4","1","3","1","1","0","0","0","1","4","0","4","3","1","4","3","3","agree","18004.09999999404","","","","{""mental"":""N/A"",""mentdrug"":""N/A"",""mentpos"":""N/A""}","","","","","","","",""
"survey-likert","7","376178","0.0-4.0-3.0","u2ykeg6xor01cfe","1","61003e2c597feda3779db930","23","10/1997","Single","Mandarin Chinese","English, Cantonese, Korean","Female","Asian","No","Undergraduate degree","No, currently not in school","N/A","N/A","N/A","5","7","5","3","1","0.5166666860000001","stim/H010.jpg","76","76","0.533333332","3","2","3","2","2","3","3","2","2","2","3","3","1","2","1","1","4","4","1","5","6","1","1","0","3","4","0","5","4","4","1","3","3","5","1","1","3","5","5","2","5","3","5","5","3","3","3","3","4","1","3","1","1","0","0","0","1","4","0","4","3","1","4","3","3","agree","44975.40000000596","","","","{""sesparent"":5,""sesstudent"":7,""sesladder"":5}","[0,1,2]","","","","","","",""
"survey-likert","8","395685","0.0-4.0-4.0","u2ykeg6xor01cfe","1","61003e2c597feda3779db930","23","10/1997","Single","Mandarin Chinese","English, Cantonese, Korean","Female","Asian","No","Undergraduate degree","No, currently not in school","N/A","N/A","N/A","5","7","5","3","1","0.5166666860000001","stim/H010.jpg","76","76","0.533333332","3","2","3","2","2","3","3","2","2","2","3","3","1","2","1","1","4","4","1","5","6","1","1","0","3","4","0","5","4","4","1","3","3","5","1","1","3","5","5","2","5","3","5","5","3","3","3","3","4","1","3","1","1","0","0","0","1","4","0","4","3","1","4","3","3","agree","19501.90000000596","","","","{""educ_hs"":1,""educ_ce"":13}","[0,1]","","","","","","",""
"reconstruction","9","433236","0.0-5.0","u2ykeg6xor01cfe","1","61003e2c597feda3779db930","23","10/1997","Single","Mandarin Chinese","English, Cantonese, Korean","Female","Asian","No","Undergraduate degree","No, currently not in school","N/A","N/A","N/A","5","7","5","3","1","0.5166666860000001","stim/H010.jpg","76","76","0.533333332","3","2","3","2","2","3","3","2","2","2","3","3","1","2","1","1","4","4","1","5","6","1","1","0","3","4","0","5","4","4","1","3","3","5","1","1","3","5","5","2","5","3","5","5","3","3","3","3","4","1","3","1","1","0","0","0","1","4","0","4","3","1","4","3","3","agree","37546.59999999404","","","","","","0.5166666860000001","0.5","","","","",""
"image-keyboard-response","10","440299","0.0-6.0","u2ykeg6xor01cfe","1","61003e2c597feda3779db930","23","10/1997","Single","Mandarin Chinese","English, Cantonese, Korean","Female","Asian","No","Undergraduate degree","No, currently not in school","N/A","N/A","N/A","5","7","5","3","1","0.5166666860000001","stim/H010.jpg","76","76","0.533333332","3","2","3","2","2","3","3","2","2","2","3","3","1","2","1","1","4","4","1","5","6","1","1","0","3","4","0","5","4","4","1","3","3","5","1","1","3","5","5","2","5","3","5","5","3","3","3","3","4","1","3","1","1","0","0","0","1","4","0","4","3","1","4","3","3","agree","7061.199999988079","","","","","","","","stim/H010.jpg","76","","",""
"instructions","11","501514","0.0-7.0","u2ykeg6xor01cfe","1","61003e2c597feda3779db930","23","10/1997","Single","Mandarin Chinese","English, Cantonese, Korean","Female","Asian","No","Undergraduate degree","No, currently not in school","N/A","N/A","N/A","5","7","5","3","1","0.5166666860000001","stim/H010.jpg","76","76","0.533333332","3","2","3","2","2","3","3","2","2","2","3","3","1","2","1","1","4","4","1","5","6","1","1","0","3","4","0","5","4","4","1","3","3","5","1","1","3","5","5","2","5","3","5","5","3","3","3","3","4","1","3","1","1","0","0","0","1","4","0","4","3","1","4","3","3","agree","61212.70000000298","","","[{""page_index"":0,""viewing_time"":2172.5},{""page_index"":1,""viewing_time"":26526.10000000894},{""page_index"":2,""viewing_time"":7818.79999999702},{""page_index"":3,""viewing_time"":6457},{""page_index"":4,""viewing_time"":6255.20000000298},{""page_index"":5,""viewing_time"":8110.5},{""page_index"":6,""viewing_time"":3872.2000000029802}]","","","","","","","","",""
"image-keyboard-response","12","502016","0.0-8.0-0.0","u2ykeg6xor01cfe","1","61003e2c597feda3779db930","23","10/1997","Single","Mandarin Chinese","English, Cantonese, Korean","Female","Asian","No","Undergraduate degree","No, currently not in school","N/A","N/A","N/A","5","7","5","3","1","0.5166666860000001","stim/H010.jpg","76","76","0.533333332","3","2","3","2","2","3","3","2","2","2","3","3","1","2","1","1","4","4","1","5","6","1","1","0","3","4","0","5","4","4","1","3","3","5","1","1","3","5","5","2","5","3","5","5","3","3","3","3","4","1","3","1","1","0","0","0","1","4","0","4","3","1","4","3","3","agree","null","","","","","","","","stim/T070.jpg","null","","",""
"html-keyboard-response","13","502948","0.0-8.0-1.0","u2ykeg6xor01cfe","1","61003e2c597feda3779db930","23","10/1997","Single","Mandarin Chinese","English, Cantonese, Korean","Female","Asian","No","Undergraduate degree","No, currently not in school","N/A","N/A","N/A","5","7","5","3","1","0.5166666860000001","stim/H010.jpg","76","76","0.533333332","3","2","3","2","2","3","3","2","2","2","3","3","1","2","1","1","4","4","1","5","6","1","1","0","3","4","0","5","4","4","1","3","3","5","1","1","3","5","5","2","5","3","5","5","3","3","3","3","4","1","3","1","1","0","0","0","1","4","0","4","3","1","4","3","3","agree","931.6000000089407","","","","","","","","<div style=""font-size:60px;"">?</div>","76","1","Practice","0.5"
"image-keyboard-response","14","503955","0.0-8.0-0.1","u2ykeg6xor01cfe","1","61003e2c597feda3779db930","23","10/1997","Single","Mandarin Chinese","English, Cantonese, Korean","Female","Asian","No","Undergraduate degree","No, currently not in school","N/A","N/A","N/A","5","7","5","3","1","0.5166666860000001","stim/H010.jpg","76","76","0.533333332","3","2","3","2","2","3","3","2","2","2","3","3","1","2","1","1","4","4","1","5","6","1","1","0","3","4","0","5","4","4","1","3","3","5","1","1","3","5","5","2","5","3","5","5","3","3","3","3","4","1","3","1","1","0","0","0","1","4","0","4","3","1","4","3","3","agree","null","","","","","","","","stim/T240.jpg","null","","",""
"html-keyboard-response","15","505052","0.0-8.0-1.1","u2ykeg6xor01cfe","1","61003e2c597feda3779db930","23","10/1997","Single","Mandarin Chinese","English, Cantonese, Korean","Female","Asian","No","Undergraduate degree","No, currently not in school","N/A","N/A","N/A","5","7","5","3","1","0.5166666860000001","stim/H010.jpg","76","76","0.533333332","3","2","3","2","2","3","3","2","2","2","3","3","1","2","1","1","4","4","1","5","6","1","1","0","3","4","0","5","4","4","1","3","3","5","1","1","3","5","5","2","5","3","5","5","3","3","3","3","4","1","3","1","1","0","0","0","1","4","0","4","3","1","4","3","3","agree","1096.300000011921","","","","","","","","<div style=""font-size:60px;"">?</div>","65","2","Practice","0.5"
"image-keyboard-response","16","506057","0.0-8.0-0.2","u2ykeg6xor01cfe","1","61003e2c597feda3779db930","23","10/1997","Single","Mandarin Chinese","English, Cantonese, Korean","Female","Asian","No","Undergraduate degree","No, currently not in school","N/A","N/A","N/A","5","7","5","3","1","0.5166666860000001","stim/H010.jpg","76","76","0.533333332","3","2","3","2","2","3","3","2","2","2","3","3","1","2","1","1","4","4","1","5","6","1","1","0","3","4","0","5","4","4","1","3","3","5","1","1","3","5","5","2","5","3","5","5","3","3","3","3","4","1","3","1","1","0","0","0","1","4","0","4","3","1","4","3","3","agree","null","","","","","","","","stim/H170.jpg","null","","",""
"html-keyboard-response","17","506740","0.0-8.0-1.2","u2ykeg6xor01cfe","1","61003e2c597feda3779db930","23","10/1997","Single","Mandarin Chinese","English, Cantonese, Korean","Female","Asian","No","Undergraduate degree","No, currently not in school","N/A","N/A","N/A","5","7","5","3","1","0.5166666860000001","stim/H010.jpg","76","76","0.533333332","3","2","3","2","2","3","3","2","2","2","3","3","1","2","1","1","4","4","1","5","6","1","1","0","3","4","0","5","4","4","1","3","3","5","1","1","3","5","5","2","5","3","5","5","3","3","3","3","4","1","3","1","1","0","0","0","1","4","0","4","3","1","4","3","3","agree","682.4000000059605","","","","","","","","<div style=""font-size:60px;"">?</div>","76","3","Practice","0.5"
"image-keyboard-response","18","507749","0.0-8.0-0.3","u2ykeg6xor01cfe","1","61003e2c597feda3779db930","23","10/1997","Single","Mandarin Chinese","English, Cantonese, Korean","Female","Asian","No","Undergraduate degree","No, currently not in school","N/A","N/A","N/A","5","7","5","3","1","0.5166666860000001","stim/H010.jpg","76","76","0.533333332","3","2","3","2","2","3","3","2","2","2","3","3","1","2","1","1","4","4","1","5","6","1","1","0","3","4","0","5","4","4","1","3","3","5","1","1","3","5","5","2","5","3","5","5","3","3","3","3","4","1","3","1","1","0","0","0","1","4","0","4","3","1","4","3","3","agree","null","","","","","","","","stim/T090.jpg","null","","",""
"html-keyboard-response","19","508339","0.0-8.0-1.3","u2ykeg6xor01cfe","1","61003e2c597feda3779db930","23","10/1997","Single","Mandarin Chinese","English, Cantonese, Korean","Female","Asian","No","Undergraduate degree","No, currently not in school","N/A","N/A","N/A","5","7","5","3","1","0.5166666860000001","stim/H010.jpg","76","76","0.533333332","3","2","3","2","2","3","3","2","2","2","3","3","1","2","1","1","4","4","1","5","6","1","1","0","3","4","0","5","4","4","1","3","3","5","1","1","3","5","5","2","5","3","5","5","3","3","3","3","4","1","3","1","1","0","0","0","1","4","0","4","3","1","4","3","3","agree","589","","","","","","","","<div style=""font-size:60px;"">?</div>","76","4","Practice","0.5"
"image-keyboard-response","20","509343","0.0-8.0-0.4","u2ykeg6xor01cfe","1","61003e2c597feda3779db930","23","10/1997","Single","Mandarin Chinese","English, Cantonese, Korean","Female","Asian","No","Undergraduate degree","No, currently not in school","N/A","N/A","N/A","5","7","5","3","1","0.5166666860000001","stim/H010.jpg","76","76","0.533333332","3","2","3","2","2","3","3","2","2","2","3","3","1","2","1","1","4","4","1","5","6","1","1","0","3","4","0","5","4","4","1","3","3","5","1","1","3","5","5","2","5","3","5","5","3","3","3","3","4","1","3","1","1","0","0","0","1","4","0","4","3","1","4","3","3","agree","null","","","","","","","","stim/T100.jpg","null","","",""
"html-keyboard-response","21","509551","0.0-8.0-1.4","u2ykeg6xor01cfe","1","61003e2c597feda3779db930","23","10/1997","Single","Mandarin Chinese","English, Cantonese, Korean","Female","Asian","No","Undergraduate degree","No, currently not in school","N/A","N/A","N/A","5","7","5","3","1","0.5166666860000001","stim/H010.jpg","76","76","0.533333332","3","2","3","2","2","3","3","2","2","2","3","3","1","2","1","1","4","4","1","5","6","1","1","0","3","4","0","5","4","4","1","3","3","5","1","1","3","5","5","2","5","3","5","5","3","3","3","3","4","1","3","1","1","0","0","0","1","4","0","4","3","1","4","3","3","agree","207.79999999701977","","","","","","","","<div style=""font-size:60px;"">?</div>","76","5","Practice","0.5"
"image-keyboard-response","22","510556","0.0-8.0-0.5","u2ykeg6xor01cfe","1","61003e2c597feda3779db930","23","10/1997","Single","Mandarin Chinese","English, Cantonese, Korean","Female","Asian","No","Undergraduate degree","No, currently not in school","N/A","N/A","N/A","5","7","5","3","1","0.5166666860000001","stim/H010.jpg","76","76","0.533333332","3","2","3","2","2","3","3","2","2","2","3","3","1","2","1","1","4","4","1","5","6","1","1","0","3","4","0","5","4","4","1","3","3","5","1","1","3","5","5","2","5","3","5","5","3","3","3","3","4","1","3","1","1","0","0","0","1","4","0","4","3","1","4","3","3","agree","null","","","","","","","","stim/H060.jpg","null","","",""
"html-keyboard-response","23","510655","0.0-8.0-1.5","u2ykeg6xor01cfe","1","61003e2c597feda3779db930","23","10/1997","Single","Mandarin Chinese","English, Cantonese, Korean","Female","Asian","No","Undergraduate degree","No, currently not in school","N/A","N/A","N/A","5","7","5","3","1","0.5166666860000001","stim/H010.jpg","76","76","0.533333332","3","2","3","2","2","3","3","2","2","2","3","3","1","2","1","1","4","4","1","5","6","1","1","0","3","4","0","5","4","4","1","3","3","5","1","1","3","5","5","2","5","3","5","5","3","3","3","3","4","1","3","1","1","0","0","0","1","4","0","4","3","1","4","3","3","agree","97.5","","","","","","","","<div style=""font-size:60px;"">?</div>","76","6","Practice","0.5"
"image-keyboard-response","24","511661","0.0-8.0-0.6","u2ykeg6xor01cfe","1","61003e2c597feda3779db930","23","10/1997","Single","Mandarin Chinese","English, Cantonese, Korean","Female","Asian","No","Undergraduate degree","No, currently not in school","N/A","N/A","N/A","5","7","5","3","1","0.5166666860000001","stim/H010.jpg","76","76","0.533333332","3","2","3","2","2","3","3","2","2","2","3","3","1","2","1","1","4","4","1","5","6","1","1","0","3","4","0","5","4","4","1","3","3","5","1","1","3","5","5","2","5","3","5","5","3","3","3","3","4","1","3","1","1","0","0","0","1","4","0","4","3","1","4","3","3","agree","null","","","","","","","","stim/H160.jpg","null","","",""
"html-keyboard-response","25","511993","0.0-8.0-1.6","u2ykeg6xor01cfe","1","61003e2c597feda3779db930","23","10/1997","Single","Mandarin Chinese","English, Cantonese, Korean","Female","Asian","No","Undergraduate degree","No, currently not in school","N/A","N/A","N/A","5","7","5","3","1","0.5166666860000001","stim/H010.jpg","76","76","0.533333332","3","2","3","2","2","3","3","2","2","2","3","3","1","2","1","1","4","4","1","5","6","1","1","0","3","4","0","5","4","4","1","3","3","5","1","1","3","5","5","2","5","3","5","5","3","3","3","3","4","1","3","1","1","0","0","0","1","4","0","4","3","1","4","3","3","agree","332","","","","","","","","<div style=""font-size:60px;"">?</div>","76","7","Practice","0.5"
"image-keyboard-response","26","512999","0.0-8.0-0.7","u2ykeg6xor01cfe","1","61003e2c597feda3779db930","23","10/1997","Single","Mandarin Chinese","English, Cantonese, Korean","Female","Asian","No","Undergraduate degree","No, currently not in school","N/A","N/A","N/A","5","7","5","3","1","0.5166666860000001","stim/H010.jpg","76","76","0.533333332","3","2","3","2","2","3","3","2","2","2","3","3","1","2","1","1","4","4","1","5","6","1","1","0","3","4","0","5","4","4","1","3","3","5","1","1","3","5","5","2","5","3","5","5","3","3","3","3","4","1","3","1","1","0","0","0","1","4","0","4","3","1","4","3","3","agree","null","","","","","","","","stim/H120.jpg","null","","",""
"html-keyboard-response","27","513152","0.0-8.0-1.7","u2ykeg6xor01cfe","1","61003e2c597feda3779db930","23","10/1997","Single","Mandarin Chinese","English, Cantonese, Korean","Female","Asian","No","Undergraduate degree","No, currently not in school","N/A","N/A","N/A","5","7","5","3","1","0.5166666860000001","stim/H010.jpg","76","76","0.533333332","3","2","3","2","2","3","3","2","2","2","3","3","1","2","1","1","4","4","1","5","6","1","1","0","3","4","0","5","4","4","1","3","3","5","1","1","3","5","5","2","5","3","5","5","3","3","3","3","4","1","3","1","1","0","0","0","1","4","0","4","3","1","4","3","3","agree","152.70000000298023","","","","","","","","<div style=""font-size:60px;"">?</div>","76","8","Practice","0.5"
"image-keyboard-response","28","514159","0.0-8.0-0.8","u2ykeg6xor01cfe","1","61003e2c597feda3779db930","23","10/1997","Single","Mandarin Chinese","English, Cantonese, Korean","Female","Asian","No","Undergraduate degree","No, currently not in school","N/A","N/A","N/A","5","7","5","3","1","0.5166666860000001","stim/H010.jpg","76","76","0.533333332","3","2","3","2","2","3","3","2","2","2","3","3","1","2","1","1","4","4","1","5","6","1","1","0","3","4","0","5","4","4","1","3","3","5","1","1","3","5","5","2","5","3","5","5","3","3","3","3","4","1","3","1","1","0","0","0","1","4","0","4","3","1","4","3","3","agree","null","","","","","","","","stim/H220.jpg","null","","",""
"html-keyboard-response","29","514513","0.0-8.0-1.8","u2ykeg6xor01cfe","1","61003e2c597feda3779db930","23","10/1997","Single","Mandarin Chinese","English, Cantonese, Korean","Female","Asian","No","Undergraduate degree","No, currently not in school","N/A","N/A","N/A","5","7","5","3","1","0.5166666860000001","stim/H010.jpg","76","76","0.533333332","3","2","3","2","2","3","3","2","2","2","3","3","1","2","1","1","4","4","1","5","6","1","1","0","3","4","0","5","4","4","1","3","3","5","1","1","3","5","5","2","5","3","5","5","3","3","3","3","4","1","3","1","1","0","0","0","1","4","0","4","3","1","4","3","3","agree","353.90000000596046","","","","","","","","<div style=""font-size:60px;"">?</div>","76","9","Practice","0.5"
"image-keyboard-response","30","515517","0.0-8.0-0.9","u2ykeg6xor01cfe","1","61003e2c597feda3779db930","23","10/1997","Single","Mandarin Chinese","English, Cantonese, Korean","Female","Asian","No","Undergraduate degree","No, currently not in school","N/A","N/A","N/A","5","7","5","3","1","0.5166666860000001","stim/H010.jpg","76","76","0.533333332","3","2","3","2","2","3","3","2","2","2","3","3","1","2","1","1","4","4","1","5","6","1","1","0","3","4","0","5","4","4","1","3","3","5","1","1","3","5","5","2","5","3","5","5","3","3","3","3","4","1","3","1","1","0","0","0","1","4","0","4","3","1","4","3","3","agree","null","","","","","","","","stim/T230.jpg","null","","",""
"html-keyboard-response","31","515661","0.0-8.0-1.9","u2ykeg6xor01cfe","1","61003e2c597feda3779db930","23","10/1997","Single","Mandarin Chinese","English, Cantonese, Korean","Female","Asian","No","Undergraduate degree","No, currently not in school","N/A","N/A","N/A","5","7","5","3","1","0.5166666860000001","stim/H010.jpg","76","76","0.533333332","3","2","3","2","2","3","3","2","2","2","3","3","1","2","1","1","4","4","1","5","6","1","1","0","3","4","0","5","4","4","1","3","3","5","1","1","3","5","5","2","5","3","5","5","3","3","3","3","4","1","3","1","1","0","0","0","1","4","0","4","3","1","4","3","3","agree","143.5","","","","","","","","<div style=""font-size:60px;"">?</div>","65","10","Practice","0.5"
"html-keyboard-response","32","524200","0.0-9.0","u2ykeg6xor01cfe","1","61003e2c597feda3779db930","23","10/1997","Single","Mandarin Chinese","English, Cantonese, Korean","Female","Asian","No","Undergraduate degree","No, currently not in school","N/A","N/A","N/A","5","7","5","3","1","0.5166666860000001","stim/H010.jpg","76","76","0.533333332","3","2","3","2","2","3","3","2","2","2","3","3","1","2","1","1","4","4","1","5","6","1","1","0","3","4","0","5","4","4","1","3","3","5","1","1","3","5","5","2","5","3","5","5","3","3","3","3","4","1","3","1","1","0","0","0","1","4","0","4","3","1","4","3","3","agree","8035.70000000298","","","","","","","","<p>You have now completed the practice series.</p><p>If you have any questions, please reload this page and read the instructions again.</p><p>Otherwise, you're ready to begin the study!</p><p><strong>REMEMBER</strong>: Press <b>L </b>when you think the face is of Western origin, and <b>A </b>if not. </p><p>Press SPACE when you're ready to start!</p>","32","","",""
"html-keyboard-response","33","526460","0.0-10.0","u2ykeg6xor01cfe","1","61003e2c597feda3779db930","23","10/1997","Single","Mandarin Chinese","English, Cantonese, Korean","Female","Asian","No","Undergraduate degree","No, currently not in school","N/A","N/A","N/A","5","7","5","3","1","0.5166666860000001","stim/H010.jpg","76","76","0.533333332","3","2","3","2","2","3","3","2","2","2","3","3","1","2","1","1","4","4","1","5","6","1","1","0","3","4","0","5","4","4","1","3","3","5","1","1","3","5","5","2","5","3","5","5","3","3","3","3","4","1","3","1","1","0","0","0","1","4","0","4","3","1","4","3","3","agree","1754","","","","","","","","<p>Block 1</p><p>Press SPACE to continue.</p>","32","","",""
"image-keyboard-response","34","527965","0.0-11.0-0.0","u2ykeg6xor01cfe","1","61003e2c597feda3779db930","23","10/1997","Single","Mandarin Chinese","English, Cantonese, Korean","Female","Asian","No","Undergraduate degree","No, currently not in school","N/A","N/A","N/A","5","7","5","3","1","0.5166666860000001","stim/H010.jpg","76","76","0.533333332","3","2","3","2","2","3","3","2","2","2","3","3","1","2","1","1","4","4","1","5","6","1","1","0","3","4","0","5","4","4","1","3","3","5","1","1","3","5","5","2","5","3","5","5","3","3","3","3","4","1","3","1","1","0","0","0","1","4","0","4","3","1","4","3","3","agree","null","","","","","","","","stim/H060.jpg","null","","",""
"html-keyboard-response","35","528430","0.0-11.0-1.0","u2ykeg6xor01cfe","1","61003e2c597feda3779db930","23","10/1997","Single","Mandarin Chinese","English, Cantonese, Korean","Female","Asian","No","Undergraduate degree","No, currently not in school","N/A","N/A","N/A","5","7","5","3","1","0.5166666860000001","stim/H010.jpg","76","76","0.533333332","3","2","3","2","2","3","3","2","2","2","3","3","1","2","1","1","4","4","1","5","6","1","1","0","3","4","0","5","4","4","1","3","3","5","1","1","3","5","5","2","5","3","5","5","3","3","3","3","4","1","3","1","1","0","0","0","1","4","0","4","3","1","4","3","3","agree","464","","","","","","","","<div style=""font-size:60px;"">?</div>","76","1","1","0.8"
"image-keyboard-response","36","529432","0.0-11.0-0.1","u2ykeg6xor01cfe","1","61003e2c597feda3779db930","23","10/1997","Single","Mandarin Chinese","English, Cantonese, Korean","Female","Asian","No","Undergraduate degree","No, currently not in school","N/A","N/A","N/A","5","7","5","3","1","0.5166666860000001","stim/H010.jpg","76","76","0.533333332","3","2","3","2","2","3","3","2","2","2","3","3","1","2","1","1","4","4","1","5","6","1","1","0","3","4","0","5","4","4","1","3","3","5","1","1","3","5","5","2","5","3","5","5","3","3","3","3","4","1","3","1","1","0","0","0","1","4","0","4","3","1","4","3","3","agree","null","","","","","","","","stim/H250.jpg","null","","",""
"html-keyboard-response","37","529791","0.0-11.0-1.1","u2ykeg6xor01cfe","1","61003e2c597feda3779db930","23","10/1997","Single","Mandarin Chinese","English, Cantonese, Korean","Female","Asian","No","Undergraduate degree","No, currently not in school","N/A","N/A","N/A","5","7","5","3","1","0.5166666860000001","stim/H010.jpg","76","76","0.533333332","3","2","3","2","2","3","3","2","2","2","3","3","1","2","1","1","4","4","1","5","6","1","1","0","3","4","0","5","4","4","1","3","3","5","1","1","3","5","5","2","5","3","5","5","3","3","3","3","4","1","3","1","1","0","0","0","1","4","0","4","3","1","4","3","3","agree","358.1000000089407","","","","","","","","<div style=""font-size:60px;"">?</div>","76","2","1","0.8"
"image-keyboard-response","38","530799","0.0-11.0-0.2","u2ykeg6xor01cfe","1","61003e2c597feda3779db930","23","10/1997","Single","Mandarin Chinese","English, Cantonese, Korean","Female","Asian","No","Undergraduate degree","No, currently not in school","N/A","N/A","N/A","5","7","5","3","1","0.5166666860000001","stim/H010.jpg","76","76","0.533333332","3","2","3","2","2","3","3","2","2","2","3","3","1","2","1","1","4","4","1","5","6","1","1","0","3","4","0","5","4","4","1","3","3","5","1","1","3","5","5","2","5","3","5","5","3","3","3","3","4","1","3","1","1","0","0","0","1","4","0","4","3","1","4","3","3","agree","null","","","","","","","","stim/T100.jpg","null","","",""
"html-keyboard-response","39","531647","0.0-11.0-1.2","u2ykeg6xor01cfe","1","61003e2c597feda3779db930","23","10/1997","Single","Mandarin Chinese","English, Cantonese, Korean","Female","Asian","No","Undergraduate degree","No, currently not in school","N/A","N/A","N/A","5","7","5","3","1","0.5166666860000001","stim/H010.jpg","76","76","0.533333332","3","2","3","2","2","3","3","2","2","2","3","3","1","2","1","1","4","4","1","5","6","1","1","0","3","4","0","5","4","4","1","3","3","5","1","1","3","5","5","2","5","3","5","5","3","3","3","3","4","1","3","1","1","0","0","0","1","4","0","4","3","1","4","3","3","agree","847.2999999970198","","","","","","","","<div style=""font-size:60px;"">?</div>","65","3","1","0.8"
"image-keyboard-response","40","532652","0.0-11.0-0.3","u2ykeg6xor01cfe","1","61003e2c597feda3779db930","23","10/1997","Single","Mandarin Chinese","English, Cantonese, Korean","Female","Asian","No","Undergraduate degree","No, currently not in school","N/A","N/A","N/A","5","7","5","3","1","0.5166666860000001","stim/H010.jpg","76","76","0.533333332","3","2","3","2","2","3","3","2","2","2","3","3","1","2","1","1","4","4","1","5","6","1","1","0","3","4","0","5","4","4","1","3","3","5","1","1","3","5","5","2","5","3","5","5","3","3","3","3","4","1","3","1","1","0","0","0","1","4","0","4","3","1","4","3","3","agree","null","","","","","","","","stim/H260.jpg","null","","",""
"html-keyboard-response","41","532952","0.0-11.0-1.3","u2ykeg6xor01cfe","1","61003e2c597feda3779db930","23","10/1997","Single","Mandarin Chinese","English, Cantonese, Korean","Female","Asian","No","Undergraduate degree","No, currently not in school","N/A","N/A","N/A","5","7","5","3","1","0.5166666860000001","stim/H010.jpg","76","76","0.533333332","3","2","3","2","2","3","3","2","2","2","3","3","1","2","1","1","4","4","1","5","6","1","1","0","3","4","0","5","4","4","1","3","3","5","1","1","3","5","5","2","5","3","5","5","3","3","3","3","4","1","3","1","1","0","0","0","1","4","0","4","3","1","4","3","3","agree","299.90000000596046","","","","","","","","<div style=""font-size:60px;"">?</div>","76","4","1","0.8"
"image-keyboard-response","42","533958","0.0-11.0-0.4","u2ykeg6xor01cfe","1","61003e2c597feda3779db930","23","10/1997","Single","Mandarin Chinese","English, Cantonese, Korean","Female","Asian","No","Undergraduate degree","No, currently not in school","N/A","N/A","N/A","5","7","5","3","1","0.5166666860000001","stim/H010.jpg","76","76","0.533333332","3","2","3","2","2","3","3","2","2","2","3","3","1","2","1","1","4","4","1","5","6","1","1","0","3","4","0","5","4","4","1","3","3","5","1","1","3","5","5","2","5","3","5","5","3","3","3","3","4","1","3","1","1","0","0","0","1","4","0","4","3","1","4","3","3","agree","null","","","","","","","","stim/H030.jpg","null","","",""
"html-keyboard-response","43","534337","0.0-11.0-1.4","u2ykeg6xor01cfe","1","61003e2c597feda3779db930","23","10/1997","Single","Mandarin Chinese","English, Cantonese, Korean","Female","Asian","No","Undergraduate degree","No, currently not in school","N/A","N/A","N/A","5","7","5","3","1","0.5166666860000001","stim/H010.jpg","76","76","0.533333332","3","2","3","2","2","3","3","2","2","2","3","3","1","2","1","1","4","4","1","5","6","1","1","0","3","4","0","5","4","4","1","3","3","5","1","1","3","5","5","2","5","3","5","5","3","3","3","3","4","1","3","1","1","0","0","0","1","4","0","4","3","1","4","3","3","agree","377.69999998807907","","","","","","","","<div style=""font-size:60px;"">?</div>","76","5","1","0.8"
"image-keyboard-response","44","535343","0.0-11.0-0.5","u2ykeg6xor01cfe","1","61003e2c597feda3779db930","23","10/1997","Single","Mandarin Chinese","English, Cantonese, Korean","Female","Asian","No","Undergraduate degree","No, currently not in school","N/A","N/A","N/A","5","7","5","3","1","0.5166666860000001","stim/H010.jpg","76","76","0.533333332","3","2","3","2","2","3","3","2","2","2","3","3","1","2","1","1","4","4","1","5","6","1","1","0","3","4","0","5","4","4","1","3","3","5","1","1","3","5","5","2","5","3","5","5","3","3","3","3","4","1","3","1","1","0","0","0","1","4","0","4","3","1","4","3","3","agree","null","","","","","","","","stim/H020.jpg","null","","",""
"html-keyboard-response","45","535618","0.0-11.0-1.5","u2ykeg6xor01cfe","1","61003e2c597feda3779db930","23","10/1997","Single","Mandarin Chinese","English, Cantonese, Korean","Female","Asian","No","Undergraduate degree","No, currently not in school","N/A","N/A","N/A","5","7","5","3","1","0.5166666860000001","stim/H010.jpg","76","76","0.533333332","3","2","3","2","2","3","3","2","2","2","3","3","1","2","1","1","4","4","1","5","6","1","1","0","3","4","0","5","4","4","1","3","3","5","1","1","3","5","5","2","5","3","5","5","3","3","3","3","4","1","3","1","1","0","0","0","1","4","0","4","3","1","4","3","3","agree","274.3999999910593","","","","","","","","<div style=""font-size:60px;"">?</div>","76","6","1","0.8"
"image-keyboard-response","46","536624","0.0-11.0-0.6","u2ykeg6xor01cfe","1","61003e2c597feda3779db930","23","10/1997","Single","Mandarin Chinese","English, Cantonese, Korean","Female","Asian","No","Undergraduate degree","No, currently not in school","N/A","N/A","N/A","5","7","5","3","1","0.5166666860000001","stim/H010.jpg","76","76","0.533333332","3","2","3","2","2","3","3","2","2","2","3","3","1","2","1","1","4","4","1","5","6","1","1","0","3","4","0","5","4","4","1","3","3","5","1","1","3","5","5","2","5","3","5","5","3","3","3","3","4","1","3","1","1","0","0","0","1","4","0","4","3","1","4","3","3","agree","null","","","","","","","","stim/H230.jpg","null","","",""
"html-keyboard-response","47","536912","0.0-11.0-1.6","u2ykeg6xor01cfe","1","61003e2c597feda3779db930","23","10/1997","Single","Mandarin Chinese","English, Cantonese, Korean","Female","Asian","No","Undergraduate degree","No, currently not in school","N/A","N/A","N/A","5","7","5","3","1","0.5166666860000001","stim/H010.jpg","76","76","0.533333332","3","2","3","2","2","3","3","2","2","2","3","3","1","2","1","1","4","4","1","5","6","1","1","0","3","4","0","5","4","4","1","3","3","5","1","1","3","5","5","2","5","3","5","5","3","3","3","3","4","1","3","1","1","0","0","0","1","4","0","4","3","1","4","3","3","agree","287.6000000089407","","","","","","","","<div style=""font-size:60px;"">?</div>","76","7","1","0.8"
"image-keyboard-response","48","537917","0.0-11.0-0.7","u2ykeg6xor01cfe","1","61003e2c597feda3779db930","23","10/1997","Single","Mandarin Chinese","English, Cantonese, Korean","Female","Asian","No","Undergraduate degree","No, currently not in school","N/A","N/A","N/A","5","7","5","3","1","0.5166666860000001","stim/H010.jpg","76","76","0.533333332","3","2","3","2","2","3","3","2","2","2","3","3","1","2","1","1","4","4","1","5","6","1","1","0","3","4","0","5","4","4","1","3","3","5","1","1","3","5","5","2","5","3","5","5","3","3","3","3","4","1","3","1","1","0","0","0","1","4","0","4","3","1","4","3","3","agree","null","","","","","","","","stim/H020.jpg","null","","",""
"html-keyboard-response","49","538205","0.0-11.0-1.7","u2ykeg6xor01cfe","1","61003e2c597feda3779db930","23","10/1997","Single","Mandarin Chinese","English, Cantonese, Korean","Female","Asian","No","Undergraduate degree","No, currently not in school","N/A","N/A","N/A","5","7","5","3","1","0.5166666860000001","stim/H010.jpg","76","76","0.533333332","3","2","3","2","2","3","3","2","2","2","3","3","1","2","1","1","4","4","1","5","6","1","1","0","3","4","0","5","4","4","1","3","3","5","1","1","3","5","5","2","5","3","5","5","3","3","3","3","4","1","3","1","1","0","0","0","1","4","0","4","3","1","4","3","3","agree","287.69999998807907","","","","","","","","<div style=""font-size:60px;"">?</div>","76","8","1","0.8"
"image-keyboard-response","50","539213","0.0-11.0-0.8","u2ykeg6xor01cfe","1","61003e2c597feda3779db930","23","10/1997","Single","Mandarin Chinese","English, Cantonese, Korean","Female","Asian","No","Undergraduate degree","No, currently not in school","N/A","N/A","N/A","5","7","5","3","1","0.5166666860000001","stim/H010.jpg","76","76","0.533333332","3","2","3","2","2","3","3","2","2","2","3","3","1","2","1","1","4","4","1","5","6","1","1","0","3","4","0","5","4","4","1","3","3","5","1","1","3","5","5","2","5","3","5","5","3","3","3","3","4","1","3","1","1","0","0","0","1","4","0","4","3","1","4","3","3","agree","null","","","","","","","","stim/H110.jpg","null","","",""
"html-keyboard-response","51","539591","0.0-11.0-1.8","u2ykeg6xor01cfe","1","61003e2c597feda3779db930","23","10/1997","Single","Mandarin Chinese","English, Cantonese, Korean","Female","Asian","No","Undergraduate degree","No, currently not in school","N/A","N/A","N/A","5","7","5","3","1","0.5166666860000001","stim/H010.jpg","76","76","0.533333332","3","2","3","2","2","3","3","2","2","2","3","3","1","2","1","1","4","4","1","5","6","1","1","0","3","4","0","5","4","4","1","3","3","5","1","1","3","5","5","2","5","3","5","5","3","3","3","3","4","1","3","1","1","0","0","0","1","4","0","4","3","1","4","3","3","agree","377.69999998807907","","","","","","","","<div style=""font-size:60px;"">?</div>","76","9","1","0.8"
"image-keyboard-response","52","540595","0.0-11.0-0.9","u2ykeg6xor01cfe","1","61003e2c597feda3779db930","23","10/1997","Single","Mandarin Chinese","English, Cantonese, Korean","Female","Asian","No","Undergraduate degree","No, currently not in school","N/A","N/A","N/A","5","7","5","3","1","0.5166666860000001","stim/H010.jpg","76","76","0.533333332","3","2","3","2","2","3","3","2","2","2","3","3","1","2","1","1","4","4","1","5","6","1","1","0","3","4","0","5","4","4","1","3","3","5","1","1","3","5","5","2","5","3","5","5","3","3","3","3","4","1","3","1","1","0","0","0","1","4","0","4","3","1","4","3","3","agree","null","","","","","","","","stim/H290.jpg","null","","",""
"html-keyboard-response","53","540860","0.0-11.0-1.9","u2ykeg6xor01cfe","1","61003e2c597feda3779db930","23","10/1997","Single","Mandarin Chinese","English, Cantonese, Korean","Female","Asian","No","Undergraduate degree","No, currently not in school","N/A","N/A","N/A","5","7","5","3","1","0.5166666860000001","stim/H010.jpg","76","76","0.533333332","3","2","3","2","2","3","3","2","2","2","3","3","1","2","1","1","4","4","1","5","6","1","1","0","3","4","0","5","4","4","1","3","3","5","1","1","3","5","5","2","5","3","5","5","3","3","3","3","4","1","3","1","1","0","0","0","1","4","0","4","3","1","4","3","3","agree","264.90000000596046","","","","","","","","<div style=""font-size:60px;"">?</div>","76","10","1","0.8"
"image-keyboard-response","54","541862","0.0-11.0-0.10","u2ykeg6xor01cfe","1","61003e2c597feda3779db930","23","10/1997","Single","Mandarin Chinese","English, Cantonese, Korean","Female","Asian","No","Undergraduate degree","No, currently not in school","N/A","N/A","N/A","5","7","5","3","1","0.5166666860000001","stim/H010.jpg","76","76","0.533333332","3","2","3","2","2","3","3","2","2","2","3","3","1","2","1","1","4","4","1","5","6","1","1","0","3","4","0","5","4","4","1","3","3","5","1","1","3","5","5","2","5","3","5","5","3","3","3","3","4","1","3","1","1","0","0","0","1","4","0","4","3","1","4","3","3","agree","null","","","","","","","","stim/T100.jpg","null","","",""
"html-keyboard-response","55","542256","0.0-11.0-1.10","u2ykeg6xor01cfe","1","61003e2c597feda3779db930","23","10/1997","Single","Mandarin Chinese","English, Cantonese, Korean","Female","Asian","No","Undergraduate degree","No, currently not in school","N/A","N/A","N/A","5","7","5","3","1","0.5166666860000001","stim/H010.jpg","76","76","0.533333332","3","2","3","2","2","3","3","2","2","2","3","3","1","2","1","1","4","4","1","5","6","1","1","0","3","4","0","5","4","4","1","3","3","5","1","1","3","5","5","2","5","3","5","5","3","3","3","3","4","1","3","1","1","0","0","0","1","4","0","4","3","1","4","3","3","agree","392.8999999910593","","","","","","","","<div style=""font-size:60px;"">?</div>","65","11","1","0.8"
"image-keyboard-response","56","543259","0.0-11.0-0.11","u2ykeg6xor01cfe","1","61003e2c597feda3779db930","23","10/1997","Single","Mandarin Chinese","English, Cantonese, Korean","Female","Asian","No","Undergraduate degree","No, currently not in school","N/A","N/A","N/A","5","7","5","3","1","0.5166666860000001","stim/H010.jpg","76","76","0.533333332","3","2","3","2","2","3","3","2","2","2","3","3","1","2","1","1","4","4","1","5","6","1","1","0","3","4","0","5","4","4","1","3","3","5","1","1","3","5","5","2","5","3","5","5","3","3","3","3","4","1","3","1","1","0","0","0","1","4","0","4","3","1","4","3","3","agree","null","","","","","","","","stim/H180.jpg","null","","",""
"html-keyboard-response","57","545632","0.0-11.0-1.11","u2ykeg6xor01cfe","1","61003e2c597feda3779db930","23","10/1997","Single","Mandarin Chinese","English, Cantonese, Korean","Female","Asian","No","Undergraduate degree","No, currently not in school","N/A","N/A","N/A","5","7","5","3","1","0.5166666860000001","stim/H010.jpg","76","76","0.533333332","3","2","3","2","2","3","3","2","2","2","3","3","1","2","1","1","4","4","1","5","6","1","1","0","3","4","0","5","4","4","1","3","3","5","1","1","3","5","5","2","5","3","5","5","3","3","3","3","4","1","3","1","1","0","0","0","1","4","0","4","3","1","4","3","3","agree","2372.5","","","","","","","","<div style=""font-size:60px;"">?</div>","76","12","1","0.8"
"image-keyboard-response","58","546639","0.0-11.0-0.12","u2ykeg6xor01cfe","1","61003e2c597feda3779db930","23","10/1997","Single","Mandarin Chinese","English, Cantonese, Korean","Female","Asian","No","Undergraduate degree","No, currently not in school","N/A","N/A","N/A","5","7","5","3","1","0.5166666860000001","stim/H010.jpg","76","76","0.533333332","3","2","3","2","2","3","3","2","2","2","3","3","1","2","1","1","4","4","1","5","6","1","1","0","3","4","0","5","4","4","1","3","3","5","1","1","3","5","5","2","5","3","5","5","3","3","3","3","4","1","3","1","1","0","0","0","1","4","0","4","3","1","4","3","3","agree","null","","","","","","","","stim/H250.jpg","null","","",""
"html-keyboard-response","59","546857","0.0-11.0-1.12","u2ykeg6xor01cfe","1","61003e2c597feda3779db930","23","10/1997","Single","Mandarin Chinese","English, Cantonese, Korean","Female","Asian","No","Undergraduate degree","No, currently not in school","N/A","N/A","N/A","5","7","5","3","1","0.5166666860000001","stim/H010.jpg","76","76","0.533333332","3","2","3","2","2","3","3","2","2","2","3","3","1","2","1","1","4","4","1","5","6","1","1","0","3","4","0","5","4","4","1","3","3","5","1","1","3","5","5","2","5","3","5","5","3","3","3","3","4","1","3","1","1","0","0","0","1","4","0","4","3","1","4","3","3","agree","218.09999999403954","","","","","","","","<div style=""font-size:60px;"">?</div>","76","13","1","0.8"
"image-keyboard-response","60","547863","0.0-11.0-0.13","u2ykeg6xor01cfe","1","61003e2c597feda3779db930","23","10/1997","Single","Mandarin Chinese","English, Cantonese, Korean","Female","Asian","No","Undergraduate degree","No, currently not in school","N/A","N/A","N/A","5","7","5","3","1","0.5166666860000001","stim/H010.jpg","76","76","0.533333332","3","2","3","2","2","3","3","2","2","2","3","3","1","2","1","1","4","4","1","5","6","1","1","0","3","4","0","5","4","4","1","3","3","5","1","1","3","5","5","2","5","3","5","5","3","3","3","3","4","1","3","1","1","0","0","0","1","4","0","4","3","1","4","3","3","agree","null","","","","","","","","stim/H120.jpg","null","","",""
"html-keyboard-response","61","548285","0.0-11.0-1.13","u2ykeg6xor01cfe","1","61003e2c597feda3779db930","23","10/1997","Single","Mandarin Chinese","English, Cantonese, Korean","Female","Asian","No","Undergraduate degree","No, currently not in school","N/A","N/A","N/A","5","7","5","3","1","0.5166666860000001","stim/H010.jpg","76","76","0.533333332","3","2","3","2","2","3","3","2","2","2","3","3","1","2","1","1","4","4","1","5","6","1","1","0","3","4","0","5","4","4","1","3","3","5","1","1","3","5","5","2","5","3","5","5","3","3","3","3","4","1","3","1","1","0","0","0","1","4","0","4","3","1","4","3","3","agree","421.79999999701977","","","","","","","","<div style=""font-size:60px;"">?</div>","76","14","1","0.8"
"image-keyboard-response","62","549291","0.0-11.0-0.14","u2ykeg6xor01cfe","1","61003e2c597feda3779db930","23","10/1997","Single","Mandarin Chinese","English, Cantonese, Korean","Female","Asian","No","Undergraduate degree","No, currently not in school","N/A","N/A","N/A","5","7","5","3","1","0.5166666860000001","stim/H010.jpg","76","76","0.533333332","3","2","3","2","2","3","3","2","2","2","3","3","1","2","1","1","4","4","1","5","6","1","1","0","3","4","0","5","4","4","1","3","3","5","1","1","3","5","5","2","5","3","5","5","3","3","3","3","4","1","3","1","1","0","0","0","1","4","0","4","3","1","4","3","3","agree","null","","","","","","","","stim/T170.jpg","null","","",""
"html-keyboard-response","63","549411","0.0-11.0-1.14","u2ykeg6xor01cfe","1","61003e2c597feda3779db930","23","10/1997","Single","Mandarin Chinese","English, Cantonese, Korean","Female","Asian","No","Undergraduate degree","No, currently not in school","N/A","N/A","N/A","5","7","5","3","1","0.5166666860000001","stim/H010.jpg","76","76","0.533333332","3","2","3","2","2","3","3","2","2","2","3","3","1","2","1","1","4","4","1","5","6","1","1","0","3","4","0","5","4","4","1","3","3","5","1","1","3","5","5","2","5","3","5","5","3","3","3","3","4","1","3","1","1","0","0","0","1","4","0","4","3","1","4","3","3","agree","119.29999999701977","","","","","","","","<div style=""font-size:60px;"">?</div>","65","15","1","0.8"
"image-keyboard-response","64","550419","0.0-11.0-0.15","u2ykeg6xor01cfe","1","61003e2c597feda3779db930","23","10/1997","Single","Mandarin Chinese","English, Cantonese, Korean","Female","Asian","No","Undergraduate degree","No, currently not in school","N/A","N/A","N/A","5","7","5","3","1","0.5166666860000001","stim/H010.jpg","76","76","0.533333332","3","2","3","2","2","3","3","2","2","2","3","3","1","2","1","1","4","4","1","5","6","1","1","0","3","4","0","5","4","4","1","3","3","5","1","1","3","5","5","2","5","3","5","5","3","3","3","3","4","1","3","1","1","0","0","0","1","4","0","4","3","1","4","3","3","agree","null","","","","","","","","stim/H220.jpg","null","","",""
"html-keyboard-response","65","550817","0.0-11.0-1.15","u2ykeg6xor01cfe","1","61003e2c597feda3779db930","23","10/1997","Single","Mandarin Chinese","English, Cantonese, Korean","Female","Asian","No","Undergraduate degree","No, currently not in school","N/A","N/A","N/A","5","7","5","3","1","0.5166666860000001","stim/H010.jpg","76","76","0.533333332","3","2","3","2","2","3","3","2","2","2","3","3","1","2","1","1","4","4","1","5","6","1","1","0","3","4","0","5","4","4","1","3","3","5","1","1","3","5","5","2","5","3","5","5","3","3","3","3","4","1","3","1","1","0","0","0","1","4","0","4","3","1","4","3","3","agree","397.5","","","","","","","","<div style=""font-size:60px;"">?</div>","76","16","1","0.8"
"image-keyboard-response","66","551821","0.0-11.0-0.16","u2ykeg6xor01cfe","1","61003e2c597feda3779db930","23","10/1997","Single","Mandarin Chinese","English, Cantonese, Korean","Female","Asian","No","Undergraduate degree","No, currently not in school","N/A","N/A","N/A","5","7","5","3","1","0.5166666860000001","stim/H010.jpg","76","76","0.533333332","3","2","3","2","2","3","3","2","2","2","3","3","1","2","1","1","4","4","1","5","6","1","1","0","3","4","0","5","4","4","1","3","3","5","1","1","3","5","5","2","5","3","5","5","3","3","3","3","4","1","3","1","1","0","0","0","1","4","0","4","3","1","4","3","3","agree","null","","","","","","","","stim/H300.jpg","null","","",""
"html-keyboard-response","67","552291","0.0-11.0-1.16","u2ykeg6xor01cfe","1","61003e2c597feda3779db930","23","10/1997","Single","Mandarin Chinese","English, Cantonese, Korean","Female","Asian","No","Undergraduate degree","No, currently not in school","N/A","N/A","N/A","5","7","5","3","1","0.5166666860000001","stim/H010.jpg","76","76","0.533333332","3","2","3","2","2","3","3","2","2","2","3","3","1","2","1","1","4","4","1","5","6","1","1","0","3","4","0","5","4","4","1","3","3","5","1","1","3","5","5","2","5","3","5","5","3","3","3","3","4","1","3","1","1","0","0","0","1","4","0","4","3","1","4","3","3","agree","469.1000000089407","","","","","","","","<div style=""font-size:60px;"">?</div>","76","17","1","0.8"
"image-keyboard-response","68","553298","0.0-11.0-0.17","u2ykeg6xor01cfe","1","61003e2c597feda3779db930","23","10/1997","Single","Mandarin Chinese","English, Cantonese, Korean","Female","Asian","No","Undergraduate degree","No, currently not in school","N/A","N/A","N/A","5","7","5","3","1","0.5166666860000001","stim/H010.jpg","76","76","0.533333332","3","2","3","2","2","3","3","2","2","2","3","3","1","2","1","1","4","4","1","5","6","1","1","0","3","4","0","5","4","4","1","3","3","5","1","1","3","5","5","2","5","3","5","5","3","3","3","3","4","1","3","1","1","0","0","0","1","4","0","4","3","1","4","3","3","agree","null","","","","","","","","stim/H090.jpg","null","","",""
"html-keyboard-response","69","553697","0.0-11.0-1.17","u2ykeg6xor01cfe","1","61003e2c597feda3779db930","23","10/1997","Single","Mandarin Chinese","English, Cantonese, Korean","Female","Asian","No","Undergraduate degree","No, currently not in school","N/A","N/A","N/A","5","7","5","3","1","0.5166666860000001","stim/H010.jpg","76","76","0.533333332","3","2","3","2","2","3","3","2","2","2","3","3","1","2","1","1","4","4","1","5","6","1","1","0","3","4","0","5","4","4","1","3","3","5","1","1","3","5","5","2","5","3","5","5","3","3","3","3","4","1","3","1","1","0","0","0","1","4","0","4","3","1","4","3","3","agree","397.90000000596046","","","","","","","","<div style=""font-size:60px;"">?</div>","76","18","1","0.8"
"image-keyboard-response","70","554699","0.0-11.0-0.18","u2ykeg6xor01cfe","1","61003e2c597feda3779db930","23","10/1997","Single","Mandarin Chinese","English, Cantonese, Korean","Female","Asian","No","Undergraduate degree","No, currently not in school","N/A","N/A","N/A","5","7","5","3","1","0.5166666860000001","stim/H010.jpg","76","76","0.533333332","3","2","3","2","2","3","3","2","2","2","3","3","1","2","1","1","4","4","1","5","6","1","1","0","3","4","0","5","4","4","1","3","3","5","1","1","3","5","5","2","5","3","5","5","3","3","3","3","4","1","3","1","1","0","0","0","1","4","0","4","3","1","4","3","3","agree","null","","","","","","","","stim/T030.jpg","null","","",""
"html-keyboard-response","71","555024","0.0-11.0-1.18","u2ykeg6xor01cfe","1","61003e2c597feda3779db930","23","10/1997","Single","Mandarin Chinese","English, Cantonese, Korean","Female","Asian","No","Undergraduate degree","No, currently not in school","N/A","N/A","N/A","5","7","5","3","1","0.5166666860000001","stim/H010.jpg","76","76","0.533333332","3","2","3","2","2","3","3","2","2","2","3","3","1","2","1","1","4","4","1","5","6","1","1","0","3","4","0","5","4","4","1","3","3","5","1","1","3","5","5","2","5","3","5","5","3","3","3","3","4","1","3","1","1","0","0","0","1","4","0","4","3","1","4","3","3","agree","324.70000000298023","","","","","","","","<div style=""font-size:60px;"">?</div>","65","19","1","0.8"
"image-keyboard-response","72","556032","0.0-11.0-0.19","u2ykeg6xor01cfe","1","61003e2c597feda3779db930","23","10/1997","Single","Mandarin Chinese","English, Cantonese, Korean","Female","Asian","No","Undergraduate degree","No, currently not in school","N/A","N/A","N/A","5","7","5","3","1","0.5166666860000001","stim/H010.jpg","76","76","0.533333332","3","2","3","2","2","3","3","2","2","2","3","3","1","2","1","1","4","4","1","5","6","1","1","0","3","4","0","5","4","4","1","3","3","5","1","1","3","5","5","2","5","3","5","5","3","3","3","3","4","1","3","1","1","0","0","0","1","4","0","4","3","1","4","3","3","agree","null","","","","","","","","stim/H270.jpg","null","","",""
"html-keyboard-response","73","556376","0.0-11.0-1.19","u2ykeg6xor01cfe","1","61003e2c597feda3779db930","23","10/1997","Single","Mandarin Chinese","English, Cantonese, Korean","Female","Asian","No","Undergraduate degree","No, currently not in school","N/A","N/A","N/A","5","7","5","3","1","0.5166666860000001","stim/H010.jpg","76","76","0.533333332","3","2","3","2","2","3","3","2","2","2","3","3","1","2","1","1","4","4","1","5","6","1","1","0","3","4","0","5","4","4","1","3","3","5","1","1","3","5","5","2","5","3","5","5","3","3","3","3","4","1","3","1","1","0","0","0","1","4","0","4","3","1","4","3","3","agree","343.59999999403954","","","","","","","","<div style=""font-size:60px;"">?</div>","76","20","1","0.8"
"image-keyboard-response","74","557382","0.0-11.0-0.20","u2ykeg6xor01cfe","1","61003e2c597feda3779db930","23","10/1997","Single","Mandarin Chinese","English, Cantonese, Korean","Female","Asian","No","Undergraduate degree","No, currently not in school","N/A","N/A","N/A","5","7","5","3","1","0.5166666860000001","stim/H010.jpg","76","76","0.533333332","3","2","3","2","2","3","3","2","2","2","3","3","1","2","1","1","4","4","1","5","6","1","1","0","3","4","0","5","4","4","1","3","3","5","1","1","3","5","5","2","5","3","5","5","3","3","3","3","4","1","3","1","1","0","0","0","1","4","0","4","3","1","4","3","3","agree","null","","","","","","","","stim/H270.jpg","null","","",""
"html-keyboard-response","75","557679","0.0-11.0-1.20","u2ykeg6xor01cfe","1","61003e2c597feda3779db930","23","10/1997","Single","Mandarin Chinese","English, Cantonese, Korean","Female","Asian","No","Undergraduate degree","No, currently not in school","N/A","N/A","N/A","5","7","5","3","1","0.5166666860000001","stim/H010.jpg","76","76","0.533333332","3","2","3","2","2","3","3","2","2","2","3","3","1","2","1","1","4","4","1","5","6","1","1","0","3","4","0","5","4","4","1","3","3","5","1","1","3","5","5","2","5","3","5","5","3","3","3","3","4","1","3","1","1","0","0","0","1","4","0","4","3","1","4","3","3","agree","296.8999999910593","","","","","","","","<div style=""font-size:60px;"">?</div>","76","21","1","0.8"
"image-keyboard-response","76","558681","0.0-11.0-0.21","u2ykeg6xor01cfe","1","61003e2c597feda3779db930","23","10/1997","Single","Mandarin Chinese","English, Cantonese, Korean","Female","Asian","No","Undergraduate degree","No, currently not in school","N/A","N/A","N/A","5","7","5","3","1","0.5166666860000001","stim/H010.jpg","76","76","0.533333332","3","2","3","2","2","3","3","2","2","2","3","3","1","2","1","1","4","4","1","5","6","1","1","0","3","4","0","5","4","4","1","3","3","5","1","1","3","5","5","2","5","3","5","5","3","3","3","3","4","1","3","1","1","0","0","0","1","4","0","4","3","1","4","3","3","agree","null","","","","","","","","stim/H120.jpg","null","","",""
"html-keyboard-response","77","558962","0.0-11.0-1.21","u2ykeg6xor01cfe","1","61003e2c597feda3779db930","23","10/1997","Single","Mandarin Chinese","English, Cantonese, Korean","Female","Asian","No","Undergraduate degree","No, currently not in school","N/A","N/A","N/A","5","7","5","3","1","0.5166666860000001","stim/H010.jpg","76","76","0.533333332","3","2","3","2","2","3","3","2","2","2","3","3","1","2","1","1","4","4","1","5","6","1","1","0","3","4","0","5","4","4","1","3","3","5","1","1","3","5","5","2","5","3","5","5","3","3","3","3","4","1","3","1","1","0","0","0","1","4","0","4","3","1","4","3","3","agree","280.29999999701977","","","","","","","","<div style=""font-size:60px;"">?</div>","76","22","1","0.8"
"image-keyboard-response","78","559966","0.0-11.0-0.22","u2ykeg6xor01cfe","1","61003e2c597feda3779db930","23","10/1997","Single","Mandarin Chinese","English, Cantonese, Korean","Female","Asian","No","Undergraduate degree","No, currently not in school","N/A","N/A","N/A","5","7","5","3","1","0.5166666860000001","stim/H010.jpg","76","76","0.533333332","3","2","3","2","2","3","3","2","2","2","3","3","1","2","1","1","4","4","1","5","6","1","1","0","3","4","0","5","4","4","1","3","3","5","1","1","3","5","5","2","5","3","5","5","3","3","3","3","4","1","3","1","1","0","0","0","1","4","0","4","3","1","4","3","3","agree","null","","","","","","","","stim/H050.jpg","null","","",""
"html-keyboard-response","79","560381","0.0-11.0-1.22","u2ykeg6xor01cfe","1","61003e2c597feda3779db930","23","10/1997","Single","Mandarin Chinese","English, Cantonese, Korean","Female","Asian","No","Undergraduate degree","No, currently not in school","N/A","N/A","N/A","5","7","5","3","1","0.5166666860000001","stim/H010.jpg","76","76","0.533333332","3","2","3","2","2","3","3","2","2","2","3","3","1","2","1","1","4","4","1","5","6","1","1","0","3","4","0","5","4","4","1","3","3","5","1","1","3","5","5","2","5","3","5","5","3","3","3","3","4","1","3","1","1","0","0","0","1","4","0","4","3","1","4","3","3","agree","414.79999999701977","","","","","","","","<div style=""font-size:60px;"">?</div>","76","23","1","0.8"
"image-keyboard-response","80","561382","0.0-11.0-0.23","u2ykeg6xor01cfe","1","61003e2c597feda3779db930","23","10/1997","Single","Mandarin Chinese","English, Cantonese, Korean","Female","Asian","No","Undergraduate degree","No, currently not in school","N/A","N/A","N/A","5","7","5","3","1","0.5166666860000001","stim/H010.jpg","76","76","0.533333332","3","2","3","2","2","3","3","2","2","2","3","3","1","2","1","1","4","4","1","5","6","1","1","0","3","4","0","5","4","4","1","3","3","5","1","1","3","5","5","2","5","3","5","5","3","3","3","3","4","1","3","1","1","0","0","0","1","4","0","4","3","1","4","3","3","agree","null","","","","","","","","stim/H010.jpg","null","","",""
"html-keyboard-response","81","561696","0.0-11.0-1.23","u2ykeg6xor01cfe","1","61003e2c597feda3779db930","23","10/1997","Single","Mandarin Chinese","English, Cantonese, Korean","Female","Asian","No","Undergraduate degree","No, currently not in school","N/A","N/A","N/A","5","7","5","3","1","0.5166666860000001","stim/H010.jpg","76","76","0.533333332","3","2","3","2","2","3","3","2","2","2","3","3","1","2","1","1","4","4","1","5","6","1","1","0","3","4","0","5","4","4","1","3","3","5","1","1","3","5","5","2","5","3","5","5","3","3","3","3","4","1","3","1","1","0","0","0","1","4","0","4","3","1","4","3","3","agree","313.09999999403954","","","","","","","","<div style=""font-size:60px;"">?</div>","76","24","1","0.8"
"image-keyboard-response","82","562697","0.0-11.0-0.24","u2ykeg6xor01cfe","1","61003e2c597feda3779db930","23","10/1997","Single","Mandarin Chinese","English, Cantonese, Korean","Female","Asian","No","Undergraduate degree","No, currently not in school","N/A","N/A","N/A","5","7","5","3","1","0.5166666860000001","stim/H010.jpg","76","76","0.533333332","3","2","3","2","2","3","3","2","2","2","3","3","1","2","1","1","4","4","1","5","6","1","1","0","3","4","0","5","4","4","1","3","3","5","1","1","3","5","5","2","5","3","5","5","3","3","3","3","4","1","3","1","1","0","0","0","1","4","0","4","3","1","4","3","3","agree","null","","","","","","","","stim/H290.jpg","null","","",""
"html-keyboard-response","83","562978","0.0-11.0-1.24","u2ykeg6xor01cfe","1","61003e2c597feda3779db930","23","10/1997","Single","Mandarin Chinese","English, Cantonese, Korean","Female","Asian","No","Undergraduate degree","No, currently not in school","N/A","N/A","N/A","5","7","5","3","1","0.5166666860000001","stim/H010.jpg","76","76","0.533333332","3","2","3","2","2","3","3","2","2","2","3","3","1","2","1","1","4","4","1","5","6","1","1","0","3","4","0","5","4","4","1","3","3","5","1","1","3","5","5","2","5","3","5","5","3","3","3","3","4","1","3","1","1","0","0","0","1","4","0","4","3","1","4","3","3","agree","280.90000000596046","","","","","","","","<div style=""font-size:60px;"">?</div>","76","25","1","0.8"
"image-keyboard-response","84","563980","0.0-11.0-0.25","u2ykeg6xor01cfe","1","61003e2c597feda3779db930","23","10/1997","Single","Mandarin Chinese","English, Cantonese, Korean","Female","Asian","No","Undergraduate degree","No, currently not in school","N/A","N/A","N/A","5","7","5","3","1","0.5166666860000001","stim/H010.jpg","76","76","0.533333332","3","2","3","2","2","3","3","2","2","2","3","3","1","2","1","1","4","4","1","5","6","1","1","0","3","4","0","5","4","4","1","3","3","5","1","1","3","5","5","2","5","3","5","5","3","3","3","3","4","1","3","1","1","0","0","0","1","4","0","4","3","1","4","3","3","agree","null","","","","","","","","stim/H150.jpg","null","","",""
"html-keyboard-response","85","564205","0.0-11.0-1.25","u2ykeg6xor01cfe","1","61003e2c597feda3779db930","23","10/1997","Single","Mandarin Chinese","English, Cantonese, Korean","Female","Asian","No","Undergraduate degree","No, currently not in school","N/A","N/A","N/A","5","7","5","3","1","0.5166666860000001","stim/H010.jpg","76","76","0.533333332","3","2","3","2","2","3","3","2","2","2","3","3","1","2","1","1","4","4","1","5","6","1","1","0","3","4","0","5","4","4","1","3","3","5","1","1","3","5","5","2","5","3","5","5","3","3","3","3","4","1","3","1","1","0","0","0","1","4","0","4","3","1","4","3","3","agree","224.59999999403954","","","","","","","","<div style=""font-size:60px;"">?</div>","76","26","1","0.8"
"image-keyboard-response","86","565215","0.0-11.0-0.26","u2ykeg6xor01cfe","1","61003e2c597feda3779db930","23","10/1997","Single","Mandarin Chinese","English, Cantonese, Korean","Female","Asian","No","Undergraduate degree","No, currently not in school","N/A","N/A","N/A","5","7","5","3","1","0.5166666860000001","stim/H010.jpg","76","76","0.533333332","3","2","3","2","2","3","3","2","2","2","3","3","1","2","1","1","4","4","1","5","6","1","1","0","3","4","0","5","4","4","1","3","3","5","1","1","3","5","5","2","5","3","5","5","3","3","3","3","4","1","3","1","1","0","0","0","1","4","0","4","3","1","4","3","3","agree","null","","","","","","","","stim/H010.jpg","null","","",""
"html-keyboard-response","87","565554","0.0-11.0-1.26","u2ykeg6xor01cfe","1","61003e2c597feda3779db930","23","10/1997","Single","Mandarin Chinese","English, Cantonese, Korean","Female","Asian","No","Undergraduate degree","No, currently not in school","N/A","N/A","N/A","5","7","5","3","1","0.5166666860000001","stim/H010.jpg","76","76","0.533333332","3","2","3","2","2","3","3","2","2","2","3","3","1","2","1","1","4","4","1","5","6","1","1","0","3","4","0","5","4","4","1","3","3","5","1","1","3","5","5","2","5","3","5","5","3","3","3","3","4","1","3","1","1","0","0","0","1","4","0","4","3","1","4","3","3","agree","338.40000000596046","","","","","","","","<div style=""font-size:60px;"">?</div>","65","27","1","0.8"
"image-keyboard-response","88","566563","0.0-11.0-0.27","u2ykeg6xor01cfe","1","61003e2c597feda3779db930","23","10/1997","Single","Mandarin Chinese","English, Cantonese, Korean","Female","Asian","No","Undergraduate degree","No, currently not in school","N/A","N/A","N/A","5","7","5","3","1","0.5166666860000001","stim/H010.jpg","76","76","0.533333332","3","2","3","2","2","3","3","2","2","2","3","3","1","2","1","1","4","4","1","5","6","1","1","0","3","4","0","5","4","4","1","3","3","5","1","1","3","5","5","2","5","3","5","5","3","3","3","3","4","1","3","1","1","0","0","0","1","4","0","4","3","1","4","3","3","agree","null","","","","","","","","stim/T220.jpg","null","","",""
"html-keyboard-response","89","566850","0.0-11.0-1.27","u2ykeg6xor01cfe","1","61003e2c597feda3779db930","23","10/1997","Single","Mandarin Chinese","English, Cantonese, Korean","Female","Asian","No","Undergraduate degree","No, currently not in school","N/A","N/A","N/A","5","7","5","3","1","0.5166666860000001","stim/H010.jpg","76","76","0.533333332","3","2","3","2","2","3","3","2","2","2","3","3","1","2","1","1","4","4","1","5","6","1","1","0","3","4","0","5","4","4","1","3","3","5","1","1","3","5","5","2","5","3","5","5","3","3","3","3","4","1","3","1","1","0","0","0","1","4","0","4","3","1","4","3","3","agree","286","","","","","","","","<div style=""font-size:60px;"">?</div>","65","28","1","0.8"
"image-keyboard-response","90","567852","0.0-11.0-0.28","u2ykeg6xor01cfe","1","61003e2c597feda3779db930","23","10/1997","Single","Mandarin Chinese","English, Cantonese, Korean","Female","Asian","No","Undergraduate degree","No, currently not in school","N/A","N/A","N/A","5","7","5","3","1","0.5166666860000001","stim/H010.jpg","76","76","0.533333332","3","2","3","2","2","3","3","2","2","2","3","3","1","2","1","1","4","4","1","5","6","1","1","0","3","4","0","5","4","4","1","3","3","5","1","1","3","5","5","2","5","3","5","5","3","3","3","3","4","1","3","1","1","0","0","0","1","4","0","4","3","1","4","3","3","agree","null","","","","","","","","stim/H110.jpg","null","","",""
"html-keyboard-response","91","568130","0.0-11.0-1.28","u2ykeg6xor01cfe","1","61003e2c597feda3779db930","23","10/1997","Single","Mandarin Chinese","English, Cantonese, Korean","Female","Asian","No","Undergraduate degree","No, currently not in school","N/A","N/A","N/A","5","7","5","3","1","0.5166666860000001","stim/H010.jpg","76","76","0.533333332","3","2","3","2","2","3","3","2","2","2","3","3","1","2","1","1","4","4","1","5","6","1","1","0","3","4","0","5","4","4","1","3","3","5","1","1","3","5","5","2","5","3","5","5","3","3","3","3","4","1","3","1","1","0","0","0","1","4","0","4","3","1","4","3","3","agree","278","","","","","","","","<div style=""font-size:60px;"">?</div>","76","29","1","0.8"
"image-keyboard-response","92","569138","0.0-11.0-0.29","u2ykeg6xor01cfe","1","61003e2c597feda3779db930","23","10/1997","Single","Mandarin Chinese","English, Cantonese, Korean","Female","Asian","No","Undergraduate degree","No, currently not in school","N/A","N/A","N/A","5","7","5","3","1","0.5166666860000001","stim/H010.jpg","76","76","0.533333332","3","2","3","2","2","3","3","2","2","2","3","3","1","2","1","1","4","4","1","5","6","1","1","0","3","4","0","5","4","4","1","3","3","5","1","1","3","5","5","2","5","3","5","5","3","3","3","3","4","1","3","1","1","0","0","0","1","4","0","4","3","1","4","3","3","agree","null","","","","","","","","stim/H170.jpg","null","","",""
"html-keyboard-response","93","569390","0.0-11.0-1.29","u2ykeg6xor01cfe","1","61003e2c597feda3779db930","23","10/1997","Single","Mandarin Chinese","English, Cantonese, Korean","Female","Asian","No","Undergraduate degree","No, currently not in school","N/A","N/A","N/A","5","7","5","3","1","0.5166666860000001","stim/H010.jpg","76","76","0.533333332","3","2","3","2","2","3","3","2","2","2","3","3","1","2","1","1","4","4","1","5","6","1","1","0","3","4","0","5","4","4","1","3","3","5","1","1","3","5","5","2","5","3","5","5","3","3","3","3","4","1","3","1","1","0","0","0","1","4","0","4","3","1","4","3","3","agree","250.5","","","","","","","","<div style=""font-size:60px;"">?</div>","76","30","1","0.8"
"image-keyboard-response","94","570398","0.0-11.0-0.30","u2ykeg6xor01cfe","1","61003e2c597feda3779db930","23","10/1997","Single","Mandarin Chinese","English, Cantonese, Korean","Female","Asian","No","Undergraduate degree","No, currently not in school","N/A","N/A","N/A","5","7","5","3","1","0.5166666860000001","stim/H010.jpg","76","76","0.533333332","3","2","3","2","2","3","3","2","2","2","3","3","1","2","1","1","4","4","1","5","6","1","1","0","3","4","0","5","4","4","1","3","3","5","1","1","3","5","5","2","5","3","5","5","3","3","3","3","4","1","3","1","1","0","0","0","1","4","0","4","3","1","4","3","3","agree","null","","","","","","","","stim/H240.jpg","null","","",""
"html-keyboard-response","95","574690","0.0-11.0-1.30","u2ykeg6xor01cfe","1","61003e2c597feda3779db930","23","10/1997","Single","Mandarin Chinese","English, Cantonese, Korean","Female","Asian","No","Undergraduate degree","No, currently not in school","N/A","N/A","N/A","5","7","5","3","1","0.5166666860000001","stim/H010.jpg","76","76","0.533333332","3","2","3","2","2","3","3","2","2","2","3","3","1","2","1","1","4","4","1","5","6","1","1","0","3","4","0","5","4","4","1","3","3","5","1","1","3","5","5","2","5","3","5","5","3","3","3","3","4","1","3","1","1","0","0","0","1","4","0","4","3","1","4","3","3","agree","4290.800000011921","","","","","","","","<div style=""font-size:60px;"">?</div>","76","31","1","0.8"
"image-keyboard-response","96","575695","0.0-11.0-0.31","u2ykeg6xor01cfe","1","61003e2c597feda3779db930","23","10/1997","Single","Mandarin Chinese","English, Cantonese, Korean","Female","Asian","No","Undergraduate degree","No, currently not in school","N/A","N/A","N/A","5","7","5","3","1","0.5166666860000001","stim/H010.jpg","76","76","0.533333332","3","2","3","2","2","3","3","2","2","2","3","3","1","2","1","1","4","4","1","5","6","1","1","0","3","4","0","5","4","4","1","3","3","5","1","1","3","5","5","2","5","3","5","5","3","3","3","3","4","1","3","1","1","0","0","0","1","4","0","4","3","1","4","3","3","agree","null","","","","","","","","stim/T230.jpg","null","","",""
"html-keyboard-response","97","575983","0.0-11.0-1.31","u2ykeg6xor01cfe","1","61003e2c597feda3779db930","23","10/1997","Single","Mandarin Chinese","English, Cantonese, Korean","Female","Asian","No","Undergraduate degree","No, currently not in school","N/A","N/A","N/A","5","7","5","3","1","0.5166666860000001","stim/H010.jpg","76","76","0.533333332","3","2","3","2","2","3","3","2","2","2","3","3","1","2","1","1","4","4","1","5","6","1","1","0","3","4","0","5","4","4","1","3","3","5","1","1","3","5","5","2","5","3","5","5","3","3","3","3","4","1","3","1","1","0","0","0","1","4","0","4","3","1","4","3","3","agree","286.6000000089407","","","","","","","","<div style=""font-size:60px;"">?</div>","65","32","1","0.8"
"image-keyboard-response","98","576984","0.0-11.0-0.32","u2ykeg6xor01cfe","1","61003e2c597feda3779db930","23","10/1997","Single","Mandarin Chinese","English, Cantonese, Korean","Female","Asian","No","Undergraduate degree","No, currently not in school","N/A","N/A","N/A","5","7","5","3","1","0.5166666860000001","stim/H010.jpg","76","76","0.533333332","3","2","3","2","2","3","3","2","2","2","3","3","1","2","1","1","4","4","1","5","6","1","1","0","3","4","0","5","4","4","1","3","3","5","1","1","3","5","5","2","5","3","5","5","3","3","3","3","4","1","3","1","1","0","0","0","1","4","0","4","3","1","4","3","3","agree","null","","","","","","","","stim/T040.jpg","null","","",""
"html-keyboard-response","99","577524","0.0-11.0-1.32","u2ykeg6xor01cfe","1","61003e2c597feda3779db930","23","10/1997","Single","Mandarin Chinese","English, Cantonese, Korean","Female","Asian","No","Undergraduate degree","No, currently not in school","N/A","N/A","N/A","5","7","5","3","1","0.5166666860000001","stim/H010.jpg","76","76","0.533333332","3","2","3","2","2","3","3","2","2","2","3","3","1","2","1","1","4","4","1","5","6","1","1","0","3","4","0","5","4","4","1","3","3","5","1","1","3","5","5","2","5","3","5","5","3","3","3","3","4","1","3","1","1","0","0","0","1","4","0","4","3","1","4","3","3","agree","539.6999999880791","","","","","","","","<div style=""font-size:60px;"">?</div>","65","33","1","0.8"
"image-keyboard-response","100","578533","0.0-11.0-0.33","u2ykeg6xor01cfe","1","61003e2c597feda3779db930","23","10/1997","Single","Mandarin Chinese","English, Cantonese, Korean","Female","Asian","No","Undergraduate degree","No, currently not in school","N/A","N/A","N/A","5","7","5","3","1","0.5166666860000001","stim/H010.jpg","76","76","0.533333332","3","2","3","2","2","3","3","2","2","2","3","3","1","2","1","1","4","4","1","5","6","1","1","0","3","4","0","5","4","4","1","3","3","5","1","1","3","5","5","2","5","3","5","5","3","3","3","3","4","1","3","1","1","0","0","0","1","4","0","4","3","1","4","3","3","agree","null","","","","","","","","stim/H240.jpg","null","","",""
"html-keyboard-response","101","580022","0.0-11.0-1.33","u2ykeg6xor01cfe","1","61003e2c597feda3779db930","23","10/1997","Single","Mandarin Chinese","English, Cantonese, Korean","Female","Asian","No","Undergraduate degree","No, currently not in school","N/A","N/A","N/A","5","7","5","3","1","0.5166666860000001","stim/H010.jpg","76","76","0.533333332","3","2","3","2","2","3","3","2","2","2","3","3","1","2","1","1","4","4","1","5","6","1","1","0","3","4","0","5","4","4","1","3","3","5","1","1","3","5","5","2","5","3","5","5","3","3","3","3","4","1","3","1","1","0","0","0","1","4","0","4","3","1","4","3","3","agree","1487.7999999970198","","","","","","","","<div style=""font-size:60px;"">?</div>","76","34","1","0.8"
"image-keyboard-response","102","581029","0.0-11.0-0.34","u2ykeg6xor01cfe","1","61003e2c597feda3779db930","23","10/1997","Single","Mandarin Chinese","English, Cantonese, Korean","Female","Asian","No","Undergraduate degree","No, currently not in school","N/A","N/A","N/A","5","7","5","3","1","0.5166666860000001","stim/H010.jpg","76","76","0.533333332","3","2","3","2","2","3","3","2","2","2","3","3","1","2","1","1","4","4","1","5","6","1","1","0","3","4","0","5","4","4","1","3","3","5","1","1","3","5","5","2","5","3","5","5","3","3","3","3","4","1","3","1","1","0","0","0","1","4","0","4","3","1","4","3","3","agree","null","","","","","","","","stim/H050.jpg","null","","",""
"html-keyboard-response","103","581361","0.0-11.0-1.34","u2ykeg6xor01cfe","1","61003e2c597feda3779db930","23","10/1997","Single","Mandarin Chinese","English, Cantonese, Korean","Female","Asian","No","Undergraduate degree","No, currently not in school","N/A","N/A","N/A","5","7","5","3","1","0.5166666860000001","stim/H010.jpg","76","76","0.533333332","3","2","3","2","2","3","3","2","2","2","3","3","1","2","1","1","4","4","1","5","6","1","1","0","3","4","0","5","4","4","1","3","3","5","1","1","3","5","5","2","5","3","5","5","3","3","3","3","4","1","3","1","1","0","0","0","1","4","0","4","3","1","4","3","3","agree","331.30000001192093","","","","","","","","<div style=""font-size:60px;"">?</div>","76","35","1","0.8"
"image-keyboard-response","104","582370","0.0-11.0-0.35","u2ykeg6xor01cfe","1","61003e2c597feda3779db930","23","10/1997","Single","Mandarin Chinese","English, Cantonese, Korean","Female","Asian","No","Undergraduate degree","No, currently not in school","N/A","N/A","N/A","5","7","5","3","1","0.5166666860000001","stim/H010.jpg","76","76","0.533333332","3","2","3","2","2","3","3","2","2","2","3","3","1","2","1","1","4","4","1","5","6","1","1","0","3","4","0","5","4","4","1","3","3","5","1","1","3","5","5","2","5","3","5","5","3","3","3","3","4","1","3","1","1","0","0","0","1","4","0","4","3","1","4","3","3","agree","null","","","","","","","","stim/H070.jpg","null","","",""
"html-keyboard-response","105","582665","0.0-11.0-1.35","u2ykeg6xor01cfe","1","61003e2c597feda3779db930","23","10/1997","Single","Mandarin Chinese","English, Cantonese, Korean","Female","Asian","No","Undergraduate degree","No, currently not in school","N/A","N/A","N/A","5","7","5","3","1","0.5166666860000001","stim/H010.jpg","76","76","0.533333332","3","2","3","2","2","3","3","2","2","2","3","3","1","2","1","1","4","4","1","5","6","1","1","0","3","4","0","5","4","4","1","3","3","5","1","1","3","5","5","2","5","3","5","5","3","3","3","3","4","1","3","1","1","0","0","0","1","4","0","4","3","1","4","3","3","agree","294.6000000089407","","","","","","","","<div style=""font-size:60px;"">?</div>","76","36","1","0.8"
"image-keyboard-response","106","583672","0.0-11.0-0.36","u2ykeg6xor01cfe","1","61003e2c597feda3779db930","23","10/1997","Single","Mandarin Chinese","English, Cantonese, Korean","Female","Asian","No","Undergraduate degree","No, currently not in school","N/A","N/A","N/A","5","7","5","3","1","0.5166666860000001","stim/H010.jpg","76","76","0.533333332","3","2","3","2","2","3","3","2","2","2","3","3","1","2","1","1","4","4","1","5","6","1","1","0","3","4","0","5","4","4","1","3","3","5","1","1","3","5","5","2","5","3","5","5","3","3","3","3","4","1","3","1","1","0","0","0","1","4","0","4","3","1","4","3","3","agree","null","","","","","","","","stim/H030.jpg","null","","",""
"html-keyboard-response","107","584072","0.0-11.0-1.36","u2ykeg6xor01cfe","1","61003e2c597feda3779db930","23","10/1997","Single","Mandarin Chinese","English, Cantonese, Korean","Female","Asian","No","Undergraduate degree","No, currently not in school","N/A","N/A","N/A","5","7","5","3","1","0.5166666860000001","stim/H010.jpg","76","76","0.533333332","3","2","3","2","2","3","3","2","2","2","3","3","1","2","1","1","4","4","1","5","6","1","1","0","3","4","0","5","4","4","1","3","3","5","1","1","3","5","5","2","5","3","5","5","3","3","3","3","4","1","3","1","1","0","0","0","1","4","0","4","3","1","4","3","3","agree","398.8999999910593","","","","","","","","<div style=""font-size:60px;"">?</div>","76","37","1","0.8"
"image-keyboard-response","108","585074","0.0-11.0-0.37","u2ykeg6xor01cfe","1","61003e2c597feda3779db930","23","10/1997","Single","Mandarin Chinese","English, Cantonese, Korean","Female","Asian","No","Undergraduate degree","No, currently not in school","N/A","N/A","N/A","5","7","5","3","1","0.5166666860000001","stim/H010.jpg","76","76","0.533333332","3","2","3","2","2","3","3","2","2","2","3","3","1","2","1","1","4","4","1","5","6","1","1","0","3","4","0","5","4","4","1","3","3","5","1","1","3","5","5","2","5","3","5","5","3","3","3","3","4","1","3","1","1","0","0","0","1","4","0","4","3","1","4","3","3","agree","null","","","","","","","","stim/H050.jpg","null","","",""
"html-keyboard-response","109","585376","0.0-11.0-1.37","u2ykeg6xor01cfe","1","61003e2c597feda3779db930","23","10/1997","Single","Mandarin Chinese","English, Cantonese, Korean","Female","Asian","No","Undergraduate degree","No, currently not in school","N/A","N/A","N/A","5","7","5","3","1","0.5166666860000001","stim/H010.jpg","76","76","0.533333332","3","2","3","2","2","3","3","2","2","2","3","3","1","2","1","1","4","4","1","5","6","1","1","0","3","4","0","5","4","4","1","3","3","5","1","1","3","5","5","2","5","3","5","5","3","3","3","3","4","1","3","1","1","0","0","0","1","4","0","4","3","1","4","3","3","agree","301.8999999910593","","","","","","","","<div style=""font-size:60px;"">?</div>","76","38","1","0.8"
"image-keyboard-response","110","586385","0.0-11.0-0.38","u2ykeg6xor01cfe","1","61003e2c597feda3779db930","23","10/1997","Single","Mandarin Chinese","English, Cantonese, Korean","Female","Asian","No","Undergraduate degree","No, currently not in school","N/A","N/A","N/A","5","7","5","3","1","0.5166666860000001","stim/H010.jpg","76","76","0.533333332","3","2","3","2","2","3","3","2","2","2","3","3","1","2","1","1","4","4","1","5","6","1","1","0","3","4","0","5","4","4","1","3","3","5","1","1","3","5","5","2","5","3","5","5","3","3","3","3","4","1","3","1","1","0","0","0","1","4","0","4","3","1","4","3","3","agree","null","","","","","","","","stim/H170.jpg","null","","",""
"html-keyboard-response","111","586670","0.0-11.0-1.38","u2ykeg6xor01cfe","1","61003e2c597feda3779db930","23","10/1997","Single","Mandarin Chinese","English, Cantonese, Korean","Female","Asian","No","Undergraduate degree","No, currently not in school","N/A","N/A","N/A","5","7","5","3","1","0.5166666860000001","stim/H010.jpg","76","76","0.533333332","3","2","3","2","2","3","3","2","2","2","3","3","1","2","1","1","4","4","1","5","6","1","1","0","3","4","0","5","4","4","1","3","3","5","1","1","3","5","5","2","5","3","5","5","3","3","3","3","4","1","3","1","1","0","0","0","1","4","0","4","3","1","4","3","3","agree","284.29999999701977","","","","","","","","<div style=""font-size:60px;"">?</div>","76","39","1","0.8"
"image-keyboard-response","112","587672","0.0-11.0-0.39","u2ykeg6xor01cfe","1","61003e2c597feda3779db930","23","10/1997","Single","Mandarin Chinese","English, Cantonese, Korean","Female","Asian","No","Undergraduate degree","No, currently not in school","N/A","N/A","N/A","5","7","5","3","1","0.5166666860000001","stim/H010.jpg","76","76","0.533333332","3","2","3","2","2","3","3","2","2","2","3","3","1","2","1","1","4","4","1","5","6","1","1","0","3","4","0","5","4","4","1","3","3","5","1","1","3","5","5","2","5","3","5","5","3","3","3","3","4","1","3","1","1","0","0","0","1","4","0","4","3","1","4","3","3","agree","null","","","","","","","","stim/H140.jpg","null","","",""
"html-keyboard-response","113","587966","0.0-11.0-1.39","u2ykeg6xor01cfe","1","61003e2c597feda3779db930","23","10/1997","Single","Mandarin Chinese","English, Cantonese, Korean","Female","Asian","No","Undergraduate degree","No, currently not in school","N/A","N/A","N/A","5","7","5","3","1","0.5166666860000001","stim/H010.jpg","76","76","0.533333332","3","2","3","2","2","3","3","2","2","2","3","3","1","2","1","1","4","4","1","5","6","1","1","0","3","4","0","5","4","4","1","3","3","5","1","1","3","5","5","2","5","3","5","5","3","3","3","3","4","1","3","1","1","0","0","0","1","4","0","4","3","1","4","3","3","agree","293","","","","","","","","<div style=""font-size:60px;"">?</div>","76","40","1","0.8"
"image-keyboard-response","114","588969","0.0-11.0-0.40","u2ykeg6xor01cfe","1","61003e2c597feda3779db930","23","10/1997","Single","Mandarin Chinese","English, Cantonese, Korean","Female","Asian","No","Undergraduate degree","No, currently not in school","N/A","N/A","N/A","5","7","5","3","1","0.5166666860000001","stim/H010.jpg","76","76","0.533333332","3","2","3","2","2","3","3","2","2","2","3","3","1","2","1","1","4","4","1","5","6","1","1","0","3","4","0","5","4","4","1","3","3","5","1","1","3","5","5","2","5","3","5","5","3","3","3","3","4","1","3","1","1","0","0","0","1","4","0","4","3","1","4","3","3","agree","null","","","","","","","","stim/H280.jpg","null","","",""
"html-keyboard-response","115","590326","0.0-11.0-1.40","u2ykeg6xor01cfe","1","61003e2c597feda3779db930","23","10/1997","Single","Mandarin Chinese","English, Cantonese, Korean","Female","Asian","No","Undergraduate degree","No, currently not in school","N/A","N/A","N/A","5","7","5","3","1","0.5166666860000001","stim/H010.jpg","76","76","0.533333332","3","2","3","2","2","3","3","2","2","2","3","3","1","2","1","1","4","4","1","5","6","1","1","0","3","4","0","5","4","4","1","3","3","5","1","1","3","5","5","2","5","3","5","5","3","3","3","3","4","1","3","1","1","0","0","0","1","4","0","4","3","1","4","3","3","agree","1356.5999999940395","","","","","","","","<div style=""font-size:60px;"">?</div>","76","41","1","0.8"
"image-keyboard-response","116","591332","0.0-11.0-0.41","u2ykeg6xor01cfe","1","61003e2c597feda3779db930","23","10/1997","Single","Mandarin Chinese","English, Cantonese, Korean","Female","Asian","No","Undergraduate degree","No, currently not in school","N/A","N/A","N/A","5","7","5","3","1","0.5166666860000001","stim/H010.jpg","76","76","0.533333332","3","2","3","2","2","3","3","2","2","2","3","3","1","2","1","1","4","4","1","5","6","1","1","0","3","4","0","5","4","4","1","3","3","5","1","1","3","5","5","2","5","3","5","5","3","3","3","3","4","1","3","1","1","0","0","0","1","4","0","4","3","1","4","3","3","agree","null","","","","","","","","stim/T180.jpg","null","","",""
"html-keyboard-response","117","591778","0.0-11.0-1.41","u2ykeg6xor01cfe","1","61003e2c597feda3779db930","23","10/1997","Single","Mandarin Chinese","English, Cantonese, Korean","Female","Asian","No","Undergraduate degree","No, currently not in school","N/A","N/A","N/A","5","7","5","3","1","0.5166666860000001","stim/H010.jpg","76","76","0.533333332","3","2","3","2","2","3","3","2","2","2","3","3","1","2","1","1","4","4","1","5","6","1","1","0","3","4","0","5","4","4","1","3","3","5","1","1","3","5","5","2","5","3","5","5","3","3","3","3","4","1","3","1","1","0","0","0","1","4","0","4","3","1","4","3","3","agree","445.70000000298023","","","","","","","","<div style=""font-size:60px;"">?</div>","65","42","1","0.8"
"image-keyboard-response","118","592781","0.0-11.0-0.42","u2ykeg6xor01cfe","1","61003e2c597feda3779db930","23","10/1997","Single","Mandarin Chinese","English, Cantonese, Korean","Female","Asian","No","Undergraduate degree","No, currently not in school","N/A","N/A","N/A","5","7","5","3","1","0.5166666860000001","stim/H010.jpg","76","76","0.533333332","3","2","3","2","2","3","3","2","2","2","3","3","1","2","1","1","4","4","1","5","6","1","1","0","3","4","0","5","4","4","1","3","3","5","1","1","3","5","5","2","5","3","5","5","3","3","3","3","4","1","3","1","1","0","0","0","1","4","0","4","3","1","4","3","3","agree","null","","","","","","","","stim/H200.jpg","null","","",""
"html-keyboard-response","119","593073","0.0-11.0-1.42","u2ykeg6xor01cfe","1","61003e2c597feda3779db930","23","10/1997","Single","Mandarin Chinese","English, Cantonese, Korean","Female","Asian","No","Undergraduate degree","No, currently not in school","N/A","N/A","N/A","5","7","5","3","1","0.5166666860000001","stim/H010.jpg","76","76","0.533333332","3","2","3","2","2","3","3","2","2","2","3","3","1","2","1","1","4","4","1","5","6","1","1","0","3","4","0","5","4","4","1","3","3","5","1","1","3","5","5","2","5","3","5","5","3","3","3","3","4","1","3","1","1","0","0","0","1","4","0","4","3","1","4","3","3","agree","290.70000000298023","","","","","","","","<div style=""font-size:60px;"">?</div>","76","43","1","0.8"
"image-keyboard-response","120","594081","0.0-11.0-0.43","u2ykeg6xor01cfe","1","61003e2c597feda3779db930","23","10/1997","Single","Mandarin Chinese","English, Cantonese, Korean","Female","Asian","No","Undergraduate degree","No, currently not in school","N/A","N/A","N/A","5","7","5","3","1","0.5166666860000001","stim/H010.jpg","76","76","0.533333332","3","2","3","2","2","3","3","2","2","2","3","3","1","2","1","1","4","4","1","5","6","1","1","0","3","4","0","5","4","4","1","3","3","5","1","1","3","5","5","2","5","3","5","5","3","3","3","3","4","1","3","1","1","0","0","0","1","4","0","4","3","1","4","3","3","agree","null","","","","","","","","stim/H260.jpg","null","","",""
"html-keyboard-response","121","594366","0.0-11.0-1.43","u2ykeg6xor01cfe","1","61003e2c597feda3779db930","23","10/1997","Single","Mandarin Chinese","English, Cantonese, Korean","Female","Asian","No","Undergraduate degree","No, currently not in school","N/A","N/A","N/A","5","7","5","3","1","0.5166666860000001","stim/H010.jpg","76","76","0.533333332","3","2","3","2","2","3","3","2","2","2","3","3","1","2","1","1","4","4","1","5","6","1","1","0","3","4","0","5","4","4","1","3","3","5","1","1","3","5","5","2","5","3","5","5","3","3","3","3","4","1","3","1","1","0","0","0","1","4","0","4","3","1","4","3","3","agree","283.79999999701977","","","","","","","","<div style=""font-size:60px;"">?</div>","76","44","1","0.8"
"image-keyboard-response","122","595373","0.0-11.0-0.44","u2ykeg6xor01cfe","1","61003e2c597feda3779db930","23","10/1997","Single","Mandarin Chinese","English, Cantonese, Korean","Female","Asian","No","Undergraduate degree","No, currently not in school","N/A","N/A","N/A","5","7","5","3","1","0.5166666860000001","stim/H010.jpg","76","76","0.533333332","3","2","3","2","2","3","3","2","2","2","3","3","1","2","1","1","4","4","1","5","6","1","1","0","3","4","0","5","4","4","1","3","3","5","1","1","3","5","5","2","5","3","5","5","3","3","3","3","4","1","3","1","1","0","0","0","1","4","0","4","3","1","4","3","3","agree","null","","","","","","","","stim/T180.jpg","null","","",""
"html-keyboard-response","123","595783","0.0-11.0-1.44","u2ykeg6xor01cfe","1","61003e2c597feda3779db930","23","10/1997","Single","Mandarin Chinese","English, Cantonese, Korean","Female","Asian","No","Undergraduate degree","No, currently not in school","N/A","N/A","N/A","5","7","5","3","1","0.5166666860000001","stim/H010.jpg","76","76","0.533333332","3","2","3","2","2","3","3","2","2","2","3","3","1","2","1","1","4","4","1","5","6","1","1","0","3","4","0","5","4","4","1","3","3","5","1","1","3","5","5","2","5","3","5","5","3","3","3","3","4","1","3","1","1","0","0","0","1","4","0","4","3","1","4","3","3","agree","408.3999999910593","","","","","","","","<div style=""font-size:60px;"">?</div>","65","45","1","0.8"
"image-keyboard-response","124","596792","0.0-11.0-0.45","u2ykeg6xor01cfe","1","61003e2c597feda3779db930","23","10/1997","Single","Mandarin Chinese","English, Cantonese, Korean","Female","Asian","No","Undergraduate degree","No, currently not in school","N/A","N/A","N/A","5","7","5","3","1","0.5166666860000001","stim/H010.jpg","76","76","0.533333332","3","2","3","2","2","3","3","2","2","2","3","3","1","2","1","1","4","4","1","5","6","1","1","0","3","4","0","5","4","4","1","3","3","5","1","1","3","5","5","2","5","3","5","5","3","3","3","3","4","1","3","1","1","0","0","0","1","4","0","4","3","1","4","3","3","agree","null","","","","","","","","stim/H290.jpg","null","","",""
"html-keyboard-response","125","597178","0.0-11.0-1.45","u2ykeg6xor01cfe","1","61003e2c597feda3779db930","23","10/1997","Single","Mandarin Chinese","English, Cantonese, Korean","Female","Asian","No","Undergraduate degree","No, currently not in school","N/A","N/A","N/A","5","7","5","3","1","0.5166666860000001","stim/H010.jpg","76","76","0.533333332","3","2","3","2","2","3","3","2","2","2","3","3","1","2","1","1","4","4","1","5","6","1","1","0","3","4","0","5","4","4","1","3","3","5","1","1","3","5","5","2","5","3","5","5","3","3","3","3","4","1","3","1","1","0","0","0","1","4","0","4","3","1","4","3","3","agree","386","","","","","","","","<div style=""font-size:60px;"">?</div>","76","46","1","0.8"
"image-keyboard-response","126","598182","0.0-11.0-0.46","u2ykeg6xor01cfe","1","61003e2c597feda3779db930","23","10/1997","Single","Mandarin Chinese","English, Cantonese, Korean","Female","Asian","No","Undergraduate degree","No, currently not in school","N/A","N/A","N/A","5","7","5","3","1","0.5166666860000001","stim/H010.jpg","76","76","0.533333332","3","2","3","2","2","3","3","2","2","2","3","3","1","2","1","1","4","4","1","5","6","1","1","0","3","4","0","5","4","4","1","3","3","5","1","1","3","5","5","2","5","3","5","5","3","3","3","3","4","1","3","1","1","0","0","0","1","4","0","4","3","1","4","3","3","agree","null","","","","","","","","stim/T130.jpg","null","","",""
"html-keyboard-response","127","598890","0.0-11.0-1.46","u2ykeg6xor01cfe","1","61003e2c597feda3779db930","23","10/1997","Single","Mandarin Chinese","English, Cantonese, Korean","Female","Asian","No","Undergraduate degree","No, currently not in school","N/A","N/A","N/A","5","7","5","3","1","0.5166666860000001","stim/H010.jpg","76","76","0.533333332","3","2","3","2","2","3","3","2","2","2","3","3","1","2","1","1","4","4","1","5","6","1","1","0","3","4","0","5","4","4","1","3","3","5","1","1","3","5","5","2","5","3","5","5","3","3","3","3","4","1","3","1","1","0","0","0","1","4","0","4","3","1","4","3","3","agree","707.0999999940395","","","","","","","","<div style=""font-size:60px;"">?</div>","65","47","1","0.8"
"image-keyboard-response","128","599894","0.0-11.0-0.47","u2ykeg6xor01cfe","1","61003e2c597feda3779db930","23","10/1997","Single","Mandarin Chinese","English, Cantonese, Korean","Female","Asian","No","Undergraduate degree","No, currently not in school","N/A","N/A","N/A","5","7","5","3","1","0.5166666860000001","stim/H010.jpg","76","76","0.533333332","3","2","3","2","2","3","3","2","2","2","3","3","1","2","1","1","4","4","1","5","6","1","1","0","3","4","0","5","4","4","1","3","3","5","1","1","3","5","5","2","5","3","5","5","3","3","3","3","4","1","3","1","1","0","0","0","1","4","0","4","3","1","4","3","3","agree","null","","","","","","","","stim/H100.jpg","null","","",""
"html-keyboard-response","129","600238","0.0-11.0-1.47","u2ykeg6xor01cfe","1","61003e2c597feda3779db930","23","10/1997","Single","Mandarin Chinese","English, Cantonese, Korean","Female","Asian","No","Undergraduate degree","No, currently not in school","N/A","N/A","N/A","5","7","5","3","1","0.5166666860000001","stim/H010.jpg","76","76","0.533333332","3","2","3","2","2","3","3","2","2","2","3","3","1","2","1","1","4","4","1","5","6","1","1","0","3","4","0","5","4","4","1","3","3","5","1","1","3","5","5","2","5","3","5","5","3","3","3","3","4","1","3","1","1","0","0","0","1","4","0","4","3","1","4","3","3","agree","343.8999999910593","","","","","","","","<div style=""font-size:60px;"">?</div>","76","48","1","0.8"
"image-keyboard-response","130","601240","0.0-11.0-0.48","u2ykeg6xor01cfe","1","61003e2c597feda3779db930","23","10/1997","Single","Mandarin Chinese","English, Cantonese, Korean","Female","Asian","No","Undergraduate degree","No, currently not in school","N/A","N/A","N/A","5","7","5","3","1","0.5166666860000001","stim/H010.jpg","76","76","0.533333332","3","2","3","2","2","3","3","2","2","2","3","3","1","2","1","1","4","4","1","5","6","1","1","0","3","4","0","5","4","4","1","3","3","5","1","1","3","5","5","2","5","3","5","5","3","3","3","3","4","1","3","1","1","0","0","0","1","4","0","4","3","1","4","3","3","agree","null","","","","","","","","stim/H220.jpg","null","","",""
"html-keyboard-response","131","601600","0.0-11.0-1.48","u2ykeg6xor01cfe","1","61003e2c597feda3779db930","23","10/1997","Single","Mandarin Chinese","English, Cantonese, Korean","Female","Asian","No","Undergraduate degree","No, currently not in school","N/A","N/A","N/A","5","7","5","3","1","0.5166666860000001","stim/H010.jpg","76","76","0.533333332","3","2","3","2","2","3","3","2","2","2","3","3","1","2","1","1","4","4","1","5","6","1","1","0","3","4","0","5","4","4","1","3","3","5","1","1","3","5","5","2","5","3","5","5","3","3","3","3","4","1","3","1","1","0","0","0","1","4","0","4","3","1","4","3","3","agree","358.70000000298023","","","","","","","","<div style=""font-size:60px;"">?</div>","76","49","1","0.8"
"image-keyboard-response","132","602607","0.0-11.0-0.49","u2ykeg6xor01cfe","1","61003e2c597feda3779db930","23","10/1997","Single","Mandarin Chinese","English, Cantonese, Korean","Female","Asian","No","Undergraduate degree","No, currently not in school","N/A","N/A","N/A","5","7","5","3","1","0.5166666860000001","stim/H010.jpg","76","76","0.533333332","3","2","3","2","2","3","3","2","2","2","3","3","1","2","1","1","4","4","1","5","6","1","1","0","3","4","0","5","4","4","1","3","3","5","1","1","3","5","5","2","5","3","5","5","3","3","3","3","4","1","3","1","1","0","0","0","1","4","0","4","3","1","4","3","3","agree","null","","","","","","","","stim/H240.jpg","null","","",""
"html-keyboard-response","133","603017","0.0-11.0-1.49","u2ykeg6xor01cfe","1","61003e2c597feda3779db930","23","10/1997","Single","Mandarin Chinese","English, Cantonese, Korean","Female","Asian","No","Undergraduate degree","No, currently not in school","N/A","N/A","N/A","5","7","5","3","1","0.5166666860000001","stim/H010.jpg","76","76","0.533333332","3","2","3","2","2","3","3","2","2","2","3","3","1","2","1","1","4","4","1","5","6","1","1","0","3","4","0","5","4","4","1","3","3","5","1","1","3","5","5","2","5","3","5","5","3","3","3","3","4","1","3","1","1","0","0","0","1","4","0","4","3","1","4","3","3","agree","410.20000000298023","","","","","","","","<div style=""font-size:60px;"">?</div>","76","50","1","0.8"
"html-keyboard-response","134","692860","0.0-12.0","u2ykeg6xor01cfe","1","61003e2c597feda3779db930","23","10/1997","Single","Mandarin Chinese","English, Cantonese, Korean","Female","Asian","No","Undergraduate degree","No, currently not in school","N/A","N/A","N/A","5","7","5","3","1","0.5166666860000001","stim/H010.jpg","76","76","0.533333332","3","2","3","2","2","3","3","2","2","2","3","3","1","2","1","1","4","4","1","5","6","1","1","0","3","4","0","5","4","4","1","3","3","5","1","1","3","5","5","2","5","3","5","5","3","3","3","3","4","1","3","1","1","0","0","0","1","4","0","4","3","1","4","3","3","agree","89358.09999999404","","","","","","","","<p>Block 2</p><p>Press SPACE to continue.</p>","32","","",""
"image-keyboard-response","135","694365","0.0-13.0-0.0","u2ykeg6xor01cfe","1","61003e2c597feda3779db930","23","10/1997","Single","Mandarin Chinese","English, Cantonese, Korean","Female","Asian","No","Undergraduate degree","No, currently not in school","N/A","N/A","N/A","5","7","5","3","1","0.5166666860000001","stim/H010.jpg","76","76","0.533333332","3","2","3","2","2","3","3","2","2","2","3","3","1","2","1","1","4","4","1","5","6","1","1","0","3","4","0","5","4","4","1","3","3","5","1","1","3","5","5","2","5","3","5","5","3","3","3","3","4","1","3","1","1","0","0","0","1","4","0","4","3","1","4","3","3","agree","null","","","","","","","","stim/T250.jpg","null","","",""
"html-keyboard-response","136","695299","0.0-13.0-1.0","u2ykeg6xor01cfe","1","61003e2c597feda3779db930","23","10/1997","Single","Mandarin Chinese","English, Cantonese, Korean","Female","Asian","No","Undergraduate degree","No, currently not in school","N/A","N/A","N/A","5","7","5","3","1","0.5166666860000001","stim/H010.jpg","76","76","0.533333332","3","2","3","2","2","3","3","2","2","2","3","3","1","2","1","1","4","4","1","5","6","1","1","0","3","4","0","5","4","4","1","3","3","5","1","1","3","5","5","2","5","3","5","5","3","3","3","3","4","1","3","1","1","0","0","0","1","4","0","4","3","1","4","3","3","agree","933.3000000119209","","","","","","","","<div style=""font-size:60px;"">?</div>","65","1","2","0.8"
"image-keyboard-response","137","696302","0.0-13.0-0.1","u2ykeg6xor01cfe","1","61003e2c597feda3779db930","23","10/1997","Single","Mandarin Chinese","English, Cantonese, Korean","Female","Asian","No","Undergraduate degree","No, currently not in school","N/A","N/A","N/A","5","7","5","3","1","0.5166666860000001","stim/H010.jpg","76","76","0.533333332","3","2","3","2","2","3","3","2","2","2","3","3","1","2","1","1","4","4","1","5","6","1","1","0","3","4","0","5","4","4","1","3","3","5","1","1","3","5","5","2","5","3","5","5","3","3","3","3","4","1","3","1","1","0","0","0","1","4","0","4","3","1","4","3","3","agree","null","","","","","","","","stim/H200.jpg","null","","",""
"html-keyboard-response","138","696761","0.0-13.0-1.1","u2ykeg6xor01cfe","1","61003e2c597feda3779db930","23","10/1997","Single","Mandarin Chinese","English, Cantonese, Korean","Female","Asian","No","Undergraduate degree","No, currently not in school","N/A","N/A","N/A","5","7","5","3","1","0.5166666860000001","stim/H010.jpg","76","76","0.533333332","3","2","3","2","2","3","3","2","2","2","3","3","1","2","1","1","4","4","1","5","6","1","1","0","3","4","0","5","4","4","1","3","3","5","1","1","3","5","5","2","5","3","5","5","3","3","3","3","4","1","3","1","1","0","0","0","1","4","0","4","3","1","4","3","3","agree","458.69999998807907","","","","","","","","<div style=""font-size:60px;"">?</div>","76","2","2","0.8"
"image-keyboard-response","139","697763","0.0-13.0-0.2","u2ykeg6xor01cfe","1","61003e2c597feda3779db930","23","10/1997","Single","Mandarin Chinese","English, Cantonese, Korean","Female","Asian","No","Undergraduate degree","No, currently not in school","N/A","N/A","N/A","5","7","5","3","1","0.5166666860000001","stim/H010.jpg","76","76","0.533333332","3","2","3","2","2","3","3","2","2","2","3","3","1","2","1","1","4","4","1","5","6","1","1","0","3","4","0","5","4","4","1","3","3","5","1","1","3","5","5","2","5","3","5","5","3","3","3","3","4","1","3","1","1","0","0","0","1","4","0","4","3","1","4","3","3","agree","null","","","","","","","","stim/T130.jpg","null","","",""
