"trial_type","trial_index","time_elapsed","internal_node_id","subject","condition","ID","age","dob","marital","natlang","olang","gender","ethnicity","mental_check","educ_l","educ_c","mental","mentdrug","mentpos","sesparent","sesstudent","sesladder","educ_hs","educ_ce","s1self","chosenbody","s1selfjudge","s2selfjudge","s2self","sspc_01","sspc_02","pas_01","pas_02","pas_03","pas_04","pas_05","pas_06","pas_07","pas_08","pas_09","pas_10","pas_11","pas_12","pas_13","pas_14","contact_01","contact_02","contact_03","contact_04","contact_05","contact_06","contact_07","contact_08","contact_09","idnd_01","idnd_02","idnd_03","idnd_04","idnd_05","idnd_06","idnd_07","idnd_08","catch_01","adig_01","adig_02","adig_03","plcs_01","plcs_02","plcs_03","plcs_04","plcs_05","plcs_06","plcs_07","plcs_08","plcs_09","plcs_10","plcs_11","plcs_12","catch_02","wwwp_01","wwwp_02","wwwp_03","wwwp_04","wwwp_05","wwwp_06","wwwp_07","wwwp_08","wwwp_09","lsns_fam_1","lsns_fam_2","lsns_fam_3","lsns_fri_1","lsns_fri_2","lsns_fri_3","debrief","rt","url","success","view_history","responses","question_order","final_value","start_value","stimulus","key_press","trial","block","freq"
"pavlovia","0","13","0.0-0.0","fh2ckdc8dprjje1","1","6111691cde8646b059403cc8","21","10/1999","Single","English","NA","Female","White or Caucasian","No","Undergraduate degree","No, currently not in school","N/A","N/A","N/A","6","1","5","1","3","0.5","stim/N000.jpg","76","76","0.9999999599999999","3","1","4","","4","3","3","1","3","2","3","4","0","3","3","3","5","6","1","5","5","1","2","2","2","4","0","5","5","5","0","5","5","5","1","1","3","0","1","4","5","5","6","5","4","4","5","5","4","1","5","4","5","4","4","4","5","5","2","3","5","3","3","3","3","agree","","","","","","","","","","","","",""
"external-html","1","24868","0.0-1.0","fh2ckdc8dprjje1","1","6111691cde8646b059403cc8","21","10/1999","Single","English","NA","Female","White or Caucasian","No","Undergraduate degree","No, currently not in school","N/A","N/A","N/A","6","1","5","1","3","0.5","stim/N000.jpg","76","76","0.9999999599999999","3","1","4","","4","3","3","1","3","2","3","4","0","3","3","3","5","6","1","5","5","1","2","2","2","4","0","5","5","5","0","5","5","5","1","1","3","0","1","4","5","5","6","5","4","4","5","5","4","1","5","4","5","4","4","4","5","5","2","3","5","3","3","3","3","agree","24542.5","sub/html/consent.html","","","","","","","","","","",""
"fullscreen","2","29724","0.0-2.0","fh2ckdc8dprjje1","1","6111691cde8646b059403cc8","21","10/1999","Single","English","NA","Female","White or Caucasian","No","Undergraduate degree","No, currently not in school","N/A","N/A","N/A","6","1","5","1","3","0.5","stim/N000.jpg","76","76","0.9999999599999999","3","1","4","","4","3","3","1","3","2","3","4","0","3","3","3","5","6","1","5","5","1","2","2","2","4","0","5","5","5","0","5","5","5","1","1","3","0","1","4","5","5","6","5","4","4","5","5","4","1","5","4","5","4","4","4","5","5","2","3","5","3","3","3","3","agree","","","true","","","","","","","","","",""
"instructions","3","42746","0.0-3.0","fh2ckdc8dprjje1","1","6111691cde8646b059403cc8","21","10/1999","Single","English","NA","Female","White or Caucasian","No","Undergraduate degree","No, currently not in school","N/A","N/A","N/A","6","1","5","1","3","0.5","stim/N000.jpg","76","76","0.9999999599999999","3","1","4","","4","3","3","1","3","2","3","4","0","3","3","3","5","6","1","5","5","1","2","2","2","4","0","5","5","5","0","5","5","5","1","1","3","0","1","4","5","5","6","5","4","4","5","5","4","1","5","4","5","4","4","4","5","5","2","3","5","3","3","3","3","agree","13020.899999976158","","","[{""page_index"":0,""viewing_time"":5629.599999964237},{""page_index"":1,""viewing_time"":7390}]","","","","","","","","",""
"survey-text","4","186759","0.0-4.0-0.0","fh2ckdc8dprjje1","1","6111691cde8646b059403cc8","21","10/1999","Single","English","NA","Female","White or Caucasian","No","Undergraduate degree","No, currently not in school","N/A","N/A","N/A","6","1","5","1","3","0.5","stim/N000.jpg","76","76","0.9999999599999999","3","1","4","","4","3","3","1","3","2","3","4","0","3","3","3","5","6","1","5","5","1","2","2","2","4","0","5","5","5","0","5","5","5","1","1","3","0","1","4","5","5","6","5","4","4","5","5","4","1","5","4","5","4","4","4","5","5","2","3","5","3","3","3","3","agree","144001.19999998808","","","","{""ID"":""6111691cde8646b059403cc8"",""age"":""21"",""dob"":""10/1999"",""marital"":""Single"",""natlang"":""English"",""olang"":""NA""}","","","","","","","",""
"survey-multi-choice","5","204222","0.0-4.0-1.0","fh2ckdc8dprjje1","1","6111691cde8646b059403cc8","21","10/1999","Single","English","NA","Female","White or Caucasian","No","Undergraduate degree","No, currently not in school","N/A","N/A","N/A","6","1","5","1","3","0.5","stim/N000.jpg","76","76","0.9999999599999999","3","1","4","","4","3","3","1","3","2","3","4","0","3","3","3","5","6","1","5","5","1","2","2","2","4","0","5","5","5","0","5","5","5","1","1","3","0","1","4","5","5","6","5","4","4","5","5","4","1","5","4","5","4","4","4","5","5","2","3","5","3","3","3","3","agree","17457.599999964237","","","","{""gender"":""Female"",""ethnicity"":""White or Caucasian"",""mental_check"":""No"",""educ_l"":""Undergraduate degree"",""educ_c"":""No, currently not in school""}","[0,1,2,3,4]","","","","","","",""
"survey-text","6","227171","0.0-4.0-2.0","fh2ckdc8dprjje1","1","6111691cde8646b059403cc8","21","10/1999","Single","English","NA","Female","White or Caucasian","No","Undergraduate degree","No, currently not in school","N/A","N/A","N/A","6","1","5","1","3","0.5","stim/N000.jpg","76","76","0.9999999599999999","3","1","4","","4","3","3","1","3","2","3","4","0","3","3","3","5","6","1","5","5","1","2","2","2","4","0","5","5","5","0","5","5","5","1","1","3","0","1","4","5","5","6","5","4","4","5","5","4","1","5","4","5","4","4","4","5","5","2","3","5","3","3","3","3","agree","22940.900000035763","","","","{""mental"":""N/A"",""mentdrug"":""N/A"",""mentpos"":""N/A""}","","","","","","","",""
"survey-likert","7","309092","0.0-4.0-3.0","fh2ckdc8dprjje1","1","6111691cde8646b059403cc8","21","10/1999","Single","English","NA","Female","White or Caucasian","No","Undergraduate degree","No, currently not in school","N/A","N/A","N/A","6","1","5","1","3","0.5","stim/N000.jpg","76","76","0.9999999599999999","3","1","4","","4","3","3","1","3","2","3","4","0","3","3","3","5","6","1","5","5","1","2","2","2","4","0","5","5","5","0","5","5","5","1","1","3","0","1","4","5","5","6","5","4","4","5","5","4","1","5","4","5","4","4","4","5","5","2","3","5","3","3","3","3","agree","81917.90000003576","","","","{""sesparent"":6,""sesstudent"":1,""sesladder"":5}","[0,1,2]","","","","","","",""
"survey-likert","8","360956","0.0-4.0-4.0","fh2ckdc8dprjje1","1","6111691cde8646b059403cc8","21","10/1999","Single","English","NA","Female","White or Caucasian","No","Undergraduate degree","No, currently not in school","N/A","N/A","N/A","6","1","5","1","3","0.5","stim/N000.jpg","76","76","0.9999999599999999","3","1","4","","4","3","3","1","3","2","3","4","0","3","3","3","5","6","1","5","5","1","2","2","2","4","0","5","5","5","0","5","5","5","1","1","3","0","1","4","5","5","6","5","4","4","5","5","4","1","5","4","5","4","4","4","5","5","2","3","5","3","3","3","3","agree","51860.30000001192","","","","{""educ_hs"":4,""educ_ce"":13}","[0,1]","","","","","","",""
"reconstruction","9","375818","0.0-5.0","fh2ckdc8dprjje1","1","6111691cde8646b059403cc8","21","10/1999","Single","English","NA","Female","White or Caucasian","No","Undergraduate degree","No, currently not in school","N/A","N/A","N/A","6","1","5","1","3","0.5","stim/N000.jpg","76","76","0.9999999599999999","3","1","4","","4","3","3","1","3","2","3","4","0","3","3","3","5","6","1","5","5","1","2","2","2","4","0","5","5","5","0","5","5","5","1","1","3","0","1","4","5","5","6","5","4","4","5","5","4","1","5","4","5","4","4","4","5","5","2","3","5","3","3","3","3","agree","14858.800000011921","","","","","","0.5","0.5","","","","",""
"image-keyboard-response","10","406926","0.0-6.0","fh2ckdc8dprjje1","1","6111691cde8646b059403cc8","21","10/1999","Single","English","NA","Female","White or Caucasian","No","Undergraduate degree","No, currently not in school","N/A","N/A","N/A","6","1","5","1","3","0.5","stim/N000.jpg","76","76","0.9999999599999999","3","1","4","","4","3","3","1","3","2","3","4","0","3","3","3","5","6","1","5","5","1","2","2","2","4","0","5","5","5","0","5","5","5","1","1","3","0","1","4","5","5","6","5","4","4","5","5","4","1","5","4","5","4","4","4","5","5","2","3","5","3","3","3","3","agree","31104.30000001192","","","","","","","","stim/N000.jpg","76","","",""
"instructions","11","471833","0.0-7.0","fh2ckdc8dprjje1","1","6111691cde8646b059403cc8","21","10/1999","Single","English","NA","Female","White or Caucasian","No","Undergraduate degree","No, currently not in school","N/A","N/A","N/A","6","1","5","1","3","0.5","stim/N000.jpg","76","76","0.9999999599999999","3","1","4","","4","3","3","1","3","2","3","4","0","3","3","3","5","6","1","5","5","1","2","2","2","4","0","5","5","5","0","5","5","5","1","1","3","0","1","4","5","5","6","5","4","4","5","5","4","1","5","4","5","4","4","4","5","5","2","3","5","3","3","3","3","agree","64906.60000002384","","","[{""page_index"":0,""viewing_time"":3196.600000023842},{""page_index"":1,""viewing_time"":10780.899999976158},{""page_index"":2,""viewing_time"":9085.300000011921},{""page_index"":1,""viewing_time"":2866.100000023842},{""page_index"":2,""viewing_time"":4131.300000011921},{""page_index"":3,""viewing_time"":7338.199999988079},{""page_index"":4,""viewing_time"":5776},{""page_index"":5,""viewing_time"":13695.699999988079},{""page_index"":6,""viewing_time"":8036.100000023842}]","","","","","","","","",""
"image-keyboard-response","12","472336","0.0-8.0-0.0","fh2ckdc8dprjje1","1","6111691cde8646b059403cc8","21","10/1999","Single","English","NA","Female","White or Caucasian","No","Undergraduate degree","No, currently not in school","N/A","N/A","N/A","6","1","5","1","3","0.5","stim/N000.jpg","76","76","0.9999999599999999","3","1","4","","4","3","3","1","3","2","3","4","0","3","3","3","5","6","1","5","5","1","2","2","2","4","0","5","5","5","0","5","5","5","1","1","3","0","1","4","5","5","6","5","4","4","5","5","4","1","5","4","5","4","4","4","5","5","2","3","5","3","3","3","3","agree","null","","","","","","","","stim/T210.jpg","null","","",""
"html-keyboard-response","13","479830","0.0-8.0-1.0","fh2ckdc8dprjje1","1","6111691cde8646b059403cc8","21","10/1999","Single","English","NA","Female","White or Caucasian","No","Undergraduate degree","No, currently not in school","N/A","N/A","N/A","6","1","5","1","3","0.5","stim/N000.jpg","76","76","0.9999999599999999","3","1","4","","4","3","3","1","3","2","3","4","0","3","3","3","5","6","1","5","5","1","2","2","2","4","0","5","5","5","0","5","5","5","1","1","3","0","1","4","5","5","6","5","4","4","5","5","4","1","5","4","5","4","4","4","5","5","2","3","5","3","3","3","3","agree","7492.599999964237","","","","","","","","<div style=""font-size:60px;"">?</div>","76","1","Practice","0.5"
"image-keyboard-response","14","480858","0.0-8.0-0.1","fh2ckdc8dprjje1","1","6111691cde8646b059403cc8","21","10/1999","Single","English","NA","Female","White or Caucasian","No","Undergraduate degree","No, currently not in school","N/A","N/A","N/A","6","1","5","1","3","0.5","stim/N000.jpg","76","76","0.9999999599999999","3","1","4","","4","3","3","1","3","2","3","4","0","3","3","3","5","6","1","5","5","1","2","2","2","4","0","5","5","5","0","5","5","5","1","1","3","0","1","4","5","5","6","5","4","4","5","5","4","1","5","4","5","4","4","4","5","5","2","3","5","3","3","3","3","agree","null","","","","","","","","stim/H270.jpg","null","","",""
"html-keyboard-response","15","482877","0.0-8.0-1.1","fh2ckdc8dprjje1","1","6111691cde8646b059403cc8","21","10/1999","Single","English","NA","Female","White or Caucasian","No","Undergraduate degree","No, currently not in school","N/A","N/A","N/A","6","1","5","1","3","0.5","stim/N000.jpg","76","76","0.9999999599999999","3","1","4","","4","3","3","1","3","2","3","4","0","3","3","3","5","6","1","5","5","1","2","2","2","4","0","5","5","5","0","5","5","5","1","1","3","0","1","4","5","5","6","5","4","4","5","5","4","1","5","4","5","4","4","4","5","5","2","3","5","3","3","3","3","agree","2015.8999999761581","","","","","","","","<div style=""font-size:60px;"">?</div>","65","2","Practice","0.5"
"image-keyboard-response","16","483893","0.0-8.0-0.2","fh2ckdc8dprjje1","1","6111691cde8646b059403cc8","21","10/1999","Single","English","NA","Female","White or Caucasian","No","Undergraduate degree","No, currently not in school","N/A","N/A","N/A","6","1","5","1","3","0.5","stim/N000.jpg","76","76","0.9999999599999999","3","1","4","","4","3","3","1","3","2","3","4","0","3","3","3","5","6","1","5","5","1","2","2","2","4","0","5","5","5","0","5","5","5","1","1","3","0","1","4","5","5","6","5","4","4","5","5","4","1","5","4","5","4","4","4","5","5","2","3","5","3","3","3","3","agree","null","","","","","","","","stim/H170.jpg","null","","",""
"html-keyboard-response","17","485207","0.0-8.0-1.2","fh2ckdc8dprjje1","1","6111691cde8646b059403cc8","21","10/1999","Single","English","NA","Female","White or Caucasian","No","Undergraduate degree","No, currently not in school","N/A","N/A","N/A","6","1","5","1","3","0.5","stim/N000.jpg","76","76","0.9999999599999999","3","1","4","","4","3","3","1","3","2","3","4","0","3","3","3","5","6","1","5","5","1","2","2","2","4","0","5","5","5","0","5","5","5","1","1","3","0","1","4","5","5","6","5","4","4","5","5","4","1","5","4","5","4","4","4","5","5","2","3","5","3","3","3","3","agree","1311.800000011921","","","","","","","","<div style=""font-size:60px;"">?</div>","65","3","Practice","0.5"
"image-keyboard-response","18","486213","0.0-8.0-0.3","fh2ckdc8dprjje1","1","6111691cde8646b059403cc8","21","10/1999","Single","English","NA","Female","White or Caucasian","No","Undergraduate degree","No, currently not in school","N/A","N/A","N/A","6","1","5","1","3","0.5","stim/N000.jpg","76","76","0.9999999599999999","3","1","4","","4","3","3","1","3","2","3","4","0","3","3","3","5","6","1","5","5","1","2","2","2","4","0","5","5","5","0","5","5","5","1","1","3","0","1","4","5","5","6","5","4","4","5","5","4","1","5","4","5","4","4","4","5","5","2","3","5","3","3","3","3","agree","null","","","","","","","","stim/T120.jpg","null","","",""
"html-keyboard-response","19","487299","0.0-8.0-1.3","fh2ckdc8dprjje1","1","6111691cde8646b059403cc8","21","10/1999","Single","English","NA","Female","White or Caucasian","No","Undergraduate degree","No, currently not in school","N/A","N/A","N/A","6","1","5","1","3","0.5","stim/N000.jpg","76","76","0.9999999599999999","3","1","4","","4","3","3","1","3","2","3","4","0","3","3","3","5","6","1","5","5","1","2","2","2","4","0","5","5","5","0","5","5","5","1","1","3","0","1","4","5","5","6","5","4","4","5","5","4","1","5","4","5","4","4","4","5","5","2","3","5","3","3","3","3","agree","1083","","","","","","","","<div style=""font-size:60px;"">?</div>","76","4","Practice","0.5"
"image-keyboard-response","20","488320","0.0-8.0-0.4","fh2ckdc8dprjje1","1","6111691cde8646b059403cc8","21","10/1999","Single","English","NA","Female","White or Caucasian","No","Undergraduate degree","No, currently not in school","N/A","N/A","N/A","6","1","5","1","3","0.5","stim/N000.jpg","76","76","0.9999999599999999","3","1","4","","4","3","3","1","3","2","3","4","0","3","3","3","5","6","1","5","5","1","2","2","2","4","0","5","5","5","0","5","5","5","1","1","3","0","1","4","5","5","6","5","4","4","5","5","4","1","5","4","5","4","4","4","5","5","2","3","5","3","3","3","3","agree","null","","","","","","","","stim/T170.jpg","null","","",""
"html-keyboard-response","21","489390","0.0-8.0-1.4","fh2ckdc8dprjje1","1","6111691cde8646b059403cc8","21","10/1999","Single","English","NA","Female","White or Caucasian","No","Undergraduate degree","No, currently not in school","N/A","N/A","N/A","6","1","5","1","3","0.5","stim/N000.jpg","76","76","0.9999999599999999","3","1","4","","4","3","3","1","3","2","3","4","0","3","3","3","5","6","1","5","5","1","2","2","2","4","0","5","5","5","0","5","5","5","1","1","3","0","1","4","5","5","6","5","4","4","5","5","4","1","5","4","5","4","4","4","5","5","2","3","5","3","3","3","3","agree","1067.300000011921","","","","","","","","<div style=""font-size:60px;"">?</div>","76","5","Practice","0.5"
"image-keyboard-response","22","490398","0.0-8.0-0.5","fh2ckdc8dprjje1","1","6111691cde8646b059403cc8","21","10/1999","Single","English","NA","Female","White or Caucasian","No","Undergraduate degree","No, currently not in school","N/A","N/A","N/A","6","1","5","1","3","0.5","stim/N000.jpg","76","76","0.9999999599999999","3","1","4","","4","3","3","1","3","2","3","4","0","3","3","3","5","6","1","5","5","1","2","2","2","4","0","5","5","5","0","5","5","5","1","1","3","0","1","4","5","5","6","5","4","4","5","5","4","1","5","4","5","4","4","4","5","5","2","3","5","3","3","3","3","agree","null","","","","","","","","stim/H030.jpg","null","","",""
"html-keyboard-response","23","491919","0.0-8.0-1.5","fh2ckdc8dprjje1","1","6111691cde8646b059403cc8","21","10/1999","Single","English","NA","Female","White or Caucasian","No","Undergraduate degree","No, currently not in school","N/A","N/A","N/A","6","1","5","1","3","0.5","stim/N000.jpg","76","76","0.9999999599999999","3","1","4","","4","3","3","1","3","2","3","4","0","3","3","3","5","6","1","5","5","1","2","2","2","4","0","5","5","5","0","5","5","5","1","1","3","0","1","4","5","5","6","5","4","4","5","5","4","1","5","4","5","4","4","4","5","5","2","3","5","3","3","3","3","agree","1517.699999988079","","","","","","","","<div style=""font-size:60px;"">?</div>","65","6","Practice","0.5"
"image-keyboard-response","24","492939","0.0-8.0-0.6","fh2ckdc8dprjje1","1","6111691cde8646b059403cc8","21","10/1999","Single","English","NA","Female","White or Caucasian","No","Undergraduate degree","No, currently not in school","N/A","N/A","N/A","6","1","5","1","3","0.5","stim/N000.jpg","76","76","0.9999999599999999","3","1","4","","4","3","3","1","3","2","3","4","0","3","3","3","5","6","1","5","5","1","2","2","2","4","0","5","5","5","0","5","5","5","1","1","3","0","1","4","5","5","6","5","4","4","5","5","4","1","5","4","5","4","4","4","5","5","2","3","5","3","3","3","3","agree","null","","","","","","","","stim/H200.jpg","null","","",""
"html-keyboard-response","25","493473","0.0-8.0-1.6","fh2ckdc8dprjje1","1","6111691cde8646b059403cc8","21","10/1999","Single","English","NA","Female","White or Caucasian","No","Undergraduate degree","No, currently not in school","N/A","N/A","N/A","6","1","5","1","3","0.5","stim/N000.jpg","76","76","0.9999999599999999","3","1","4","","4","3","3","1","3","2","3","4","0","3","3","3","5","6","1","5","5","1","2","2","2","4","0","5","5","5","0","5","5","5","1","1","3","0","1","4","5","5","6","5","4","4","5","5","4","1","5","4","5","4","4","4","5","5","2","3","5","3","3","3","3","agree","533.1999999880791","","","","","","","","<div style=""font-size:60px;"">?</div>","65","7","Practice","0.5"
"image-keyboard-response","26","494490","0.0-8.0-0.7","fh2ckdc8dprjje1","1","6111691cde8646b059403cc8","21","10/1999","Single","English","NA","Female","White or Caucasian","No","Undergraduate degree","No, currently not in school","N/A","N/A","N/A","6","1","5","1","3","0.5","stim/N000.jpg","76","76","0.9999999599999999","3","1","4","","4","3","3","1","3","2","3","4","0","3","3","3","5","6","1","5","5","1","2","2","2","4","0","5","5","5","0","5","5","5","1","1","3","0","1","4","5","5","6","5","4","4","5","5","4","1","5","4","5","4","4","4","5","5","2","3","5","3","3","3","3","agree","null","","","","","","","","stim/T100.jpg","null","","",""
"html-keyboard-response","27","495153","0.0-8.0-1.7","fh2ckdc8dprjje1","1","6111691cde8646b059403cc8","21","10/1999","Single","English","NA","Female","White or Caucasian","No","Undergraduate degree","No, currently not in school","N/A","N/A","N/A","6","1","5","1","3","0.5","stim/N000.jpg","76","76","0.9999999599999999","3","1","4","","4","3","3","1","3","2","3","4","0","3","3","3","5","6","1","5","5","1","2","2","2","4","0","5","5","5","0","5","5","5","1","1","3","0","1","4","5","5","6","5","4","4","5","5","4","1","5","4","5","4","4","4","5","5","2","3","5","3","3","3","3","agree","659.3000000119209","","","","","","","","<div style=""font-size:60px;"">?</div>","76","8","Practice","0.5"
"image-keyboard-response","28","496177","0.0-8.0-0.8","fh2ckdc8dprjje1","1","6111691cde8646b059403cc8","21","10/1999","Single","English","NA","Female","White or Caucasian","No","Undergraduate degree","No, currently not in school","N/A","N/A","N/A","6","1","5","1","3","0.5","stim/N000.jpg","76","76","0.9999999599999999","3","1","4","","4","3","3","1","3","2","3","4","0","3","3","3","5","6","1","5","5","1","2","2","2","4","0","5","5","5","0","5","5","5","1","1","3","0","1","4","5","5","6","5","4","4","5","5","4","1","5","4","5","4","4","4","5","5","2","3","5","3","3","3","3","agree","null","","","","","","","","stim/T070.jpg","null","","",""
"html-keyboard-response","29","496901","0.0-8.0-1.8","fh2ckdc8dprjje1","1","6111691cde8646b059403cc8","21","10/1999","Single","English","NA","Female","White or Caucasian","No","Undergraduate degree","No, currently not in school","N/A","N/A","N/A","6","1","5","1","3","0.5","stim/N000.jpg","76","76","0.9999999599999999","3","1","4","","4","3","3","1","3","2","3","4","0","3","3","3","5","6","1","5","5","1","2","2","2","4","0","5","5","5","0","5","5","5","1","1","3","0","1","4","5","5","6","5","4","4","5","5","4","1","5","4","5","4","4","4","5","5","2","3","5","3","3","3","3","agree","721.5","","","","","","","","<div style=""font-size:60px;"">?</div>","76","9","Practice","0.5"
"image-keyboard-response","30","497907","0.0-8.0-0.9","fh2ckdc8dprjje1","1","6111691cde8646b059403cc8","21","10/1999","Single","English","NA","Female","White or Caucasian","No","Undergraduate degree","No, currently not in school","N/A","N/A","N/A","6","1","5","1","3","0.5","stim/N000.jpg","76","76","0.9999999599999999","3","1","4","","4","3","3","1","3","2","3","4","0","3","3","3","5","6","1","5","5","1","2","2","2","4","0","5","5","5","0","5","5","5","1","1","3","0","1","4","5","5","6","5","4","4","5","5","4","1","5","4","5","4","4","4","5","5","2","3","5","3","3","3","3","agree","null","","","","","","","","stim/H290.jpg","null","","",""
"html-keyboard-response","31","498761","0.0-8.0-1.9","fh2ckdc8dprjje1","1","6111691cde8646b059403cc8","21","10/1999","Single","English","NA","Female","White or Caucasian","No","Undergraduate degree","No, currently not in school","N/A","N/A","N/A","6","1","5","1","3","0.5","stim/N000.jpg","76","76","0.9999999599999999","3","1","4","","4","3","3","1","3","2","3","4","0","3","3","3","5","6","1","5","5","1","2","2","2","4","0","5","5","5","0","5","5","5","1","1","3","0","1","4","5","5","6","5","4","4","5","5","4","1","5","4","5","4","4","4","5","5","2","3","5","3","3","3","3","agree","851.8999999761581","","","","","","","","<div style=""font-size:60px;"">?</div>","65","10","Practice","0.5"
"html-keyboard-response","32","576652","0.0-9.0","fh2ckdc8dprjje1","1","6111691cde8646b059403cc8","21","10/1999","Single","English","NA","Female","White or Caucasian","No","Undergraduate degree","No, currently not in school","N/A","N/A","N/A","6","1","5","1","3","0.5","stim/N000.jpg","76","76","0.9999999599999999","3","1","4","","4","3","3","1","3","2","3","4","0","3","3","3","5","6","1","5","5","1","2","2","2","4","0","5","5","5","0","5","5","5","1","1","3","0","1","4","5","5","6","5","4","4","5","5","4","1","5","4","5","4","4","4","5","5","2","3","5","3","3","3","3","agree","77374.89999997616","","","","","","","","<p>You have now completed the practice series.</p><p>If you have any questions, please reload this page and read the instructions again.</p><p>Otherwise, you're ready to begin the study!</p><p><strong>REMEMBER</strong>: Press <b>L </b>when you think the face is of Western origin, and <b>A </b>if not. </p><p>Press SPACE when you're ready to start!</p>","32","","",""
"html-keyboard-response","33","579151","0.0-10.0","fh2ckdc8dprjje1","1","6111691cde8646b059403cc8","21","10/1999","Single","English","NA","Female","White or Caucasian","No","Undergraduate degree","No, currently not in school","N/A","N/A","N/A","6","1","5","1","3","0.5","stim/N000.jpg","76","76","0.9999999599999999","3","1","4","","4","3","3","1","3","2","3","4","0","3","3","3","5","6","1","5","5","1","2","2","2","4","0","5","5","5","0","5","5","5","1","1","3","0","1","4","5","5","6","5","4","4","5","5","4","1","5","4","5","4","4","4","5","5","2","3","5","3","3","3","3","agree","1989.9000000357628","","","","","","","","<p>Block 1</p><p>Press SPACE to continue.</p>","32","","",""
"image-keyboard-response","34","580657","0.0-11.0-0.0","fh2ckdc8dprjje1","1","6111691cde8646b059403cc8","21","10/1999","Single","English","NA","Female","White or Caucasian","No","Undergraduate degree","No, currently not in school","N/A","N/A","N/A","6","1","5","1","3","0.5","stim/N000.jpg","76","76","0.9999999599999999","3","1","4","","4","3","3","1","3","2","3","4","0","3","3","3","5","6","1","5","5","1","2","2","2","4","0","5","5","5","0","5","5","5","1","1","3","0","1","4","5","5","6","5","4","4","5","5","4","1","5","4","5","4","4","4","5","5","2","3","5","3","3","3","3","agree","null","","","","","","","","stim/T130.jpg","null","","",""
"html-keyboard-response","35","582459","0.0-11.0-1.0","fh2ckdc8dprjje1","1","6111691cde8646b059403cc8","21","10/1999","Single","English","NA","Female","White or Caucasian","No","Undergraduate degree","No, currently not in school","N/A","N/A","N/A","6","1","5","1","3","0.5","stim/N000.jpg","76","76","0.9999999599999999","3","1","4","","4","3","3","1","3","2","3","4","0","3","3","3","5","6","1","5","5","1","2","2","2","4","0","5","5","5","0","5","5","5","1","1","3","0","1","4","5","5","6","5","4","4","5","5","4","1","5","4","5","4","4","4","5","5","2","3","5","3","3","3","3","agree","1800.5","","","","","","","","<div style=""font-size:60px;"">?</div>","65","1","1","0.8"
"image-keyboard-response","36","583487","0.0-11.0-0.1","fh2ckdc8dprjje1","1","6111691cde8646b059403cc8","21","10/1999","Single","English","NA","Female","White or Caucasian","No","Undergraduate degree","No, currently not in school","N/A","N/A","N/A","6","1","5","1","3","0.5","stim/N000.jpg","76","76","0.9999999599999999","3","1","4","","4","3","3","1","3","2","3","4","0","3","3","3","5","6","1","5","5","1","2","2","2","4","0","5","5","5","0","5","5","5","1","1","3","0","1","4","5","5","6","5","4","4","5","5","4","1","5","4","5","4","4","4","5","5","2","3","5","3","3","3","3","agree","null","","","","","","","","stim/H060.jpg","null","","",""
"html-keyboard-response","37","584245","0.0-11.0-1.1","fh2ckdc8dprjje1","1","6111691cde8646b059403cc8","21","10/1999","Single","English","NA","Female","White or Caucasian","No","Undergraduate degree","No, currently not in school","N/A","N/A","N/A","6","1","5","1","3","0.5","stim/N000.jpg","76","76","0.9999999599999999","3","1","4","","4","3","3","1","3","2","3","4","0","3","3","3","5","6","1","5","5","1","2","2","2","4","0","5","5","5","0","5","5","5","1","1","3","0","1","4","5","5","6","5","4","4","5","5","4","1","5","4","5","4","4","4","5","5","2","3","5","3","3","3","3","agree","755.5","","","","","","","","<div style=""font-size:60px;"">?</div>","76","2","1","0.8"
"image-keyboard-response","38","585272","0.0-11.0-0.2","fh2ckdc8dprjje1","1","6111691cde8646b059403cc8","21","10/1999","Single","English","NA","Female","White or Caucasian","No","Undergraduate degree","No, currently not in school","N/A","N/A","N/A","6","1","5","1","3","0.5","stim/N000.jpg","76","76","0.9999999599999999","3","1","4","","4","3","3","1","3","2","3","4","0","3","3","3","5","6","1","5","5","1","2","2","2","4","0","5","5","5","0","5","5","5","1","1","3","0","1","4","5","5","6","5","4","4","5","5","4","1","5","4","5","4","4","4","5","5","2","3","5","3","3","3","3","agree","null","","","","","","","","stim/H180.jpg","null","","",""
"html-keyboard-response","39","585919","0.0-11.0-1.2","fh2ckdc8dprjje1","1","6111691cde8646b059403cc8","21","10/1999","Single","English","NA","Female","White or Caucasian","No","Undergraduate degree","No, currently not in school","N/A","N/A","N/A","6","1","5","1","3","0.5","stim/N000.jpg","76","76","0.9999999599999999","3","1","4","","4","3","3","1","3","2","3","4","0","3","3","3","5","6","1","5","5","1","2","2","2","4","0","5","5","5","0","5","5","5","1","1","3","0","1","4","5","5","6","5","4","4","5","5","4","1","5","4","5","4","4","4","5","5","2","3","5","3","3","3","3","agree","644.6000000238419","","","","","","","","<div style=""font-size:60px;"">?</div>","76","3","1","0.8"
"image-keyboard-response","40","586939","0.0-11.0-0.3","fh2ckdc8dprjje1","1","6111691cde8646b059403cc8","21","10/1999","Single","English","NA","Female","White or Caucasian","No","Undergraduate degree","No, currently not in school","N/A","N/A","N/A","6","1","5","1","3","0.5","stim/N000.jpg","76","76","0.9999999599999999","3","1","4","","4","3","3","1","3","2","3","4","0","3","3","3","5","6","1","5","5","1","2","2","2","4","0","5","5","5","0","5","5","5","1","1","3","0","1","4","5","5","6","5","4","4","5","5","4","1","5","4","5","4","4","4","5","5","2","3","5","3","3","3","3","agree","null","","","","","","","","stim/H190.jpg","null","","",""
"html-keyboard-response","41","587633","0.0-11.0-1.3","fh2ckdc8dprjje1","1","6111691cde8646b059403cc8","21","10/1999","Single","English","NA","Female","White or Caucasian","No","Undergraduate degree","No, currently not in school","N/A","N/A","N/A","6","1","5","1","3","0.5","stim/N000.jpg","76","76","0.9999999599999999","3","1","4","","4","3","3","1","3","2","3","4","0","3","3","3","5","6","1","5","5","1","2","2","2","4","0","5","5","5","0","5","5","5","1","1","3","0","1","4","5","5","6","5","4","4","5","5","4","1","5","4","5","4","4","4","5","5","2","3","5","3","3","3","3","agree","691.7000000476837","","","","","","","","<div style=""font-size:60px;"">?</div>","76","4","1","0.8"
"image-keyboard-response","42","588659","0.0-11.0-0.4","fh2ckdc8dprjje1","1","6111691cde8646b059403cc8","21","10/1999","Single","English","NA","Female","White or Caucasian","No","Undergraduate degree","No, currently not in school","N/A","N/A","N/A","6","1","5","1","3","0.5","stim/N000.jpg","76","76","0.9999999599999999","3","1","4","","4","3","3","1","3","2","3","4","0","3","3","3","5","6","1","5","5","1","2","2","2","4","0","5","5","5","0","5","5","5","1","1","3","0","1","4","5","5","6","5","4","4","5","5","4","1","5","4","5","4","4","4","5","5","2","3","5","3","3","3","3","agree","null","","","","","","","","stim/T080.jpg","null","","",""
"html-keyboard-response","43","589227","0.0-11.0-1.4","fh2ckdc8dprjje1","1","6111691cde8646b059403cc8","21","10/1999","Single","English","NA","Female","White or Caucasian","No","Undergraduate degree","No, currently not in school","N/A","N/A","N/A","6","1","5","1","3","0.5","stim/N000.jpg","76","76","0.9999999599999999","3","1","4","","4","3","3","1","3","2","3","4","0","3","3","3","5","6","1","5","5","1","2","2","2","4","0","5","5","5","0","5","5","5","1","1","3","0","1","4","5","5","6","5","4","4","5","5","4","1","5","4","5","4","4","4","5","5","2","3","5","3","3","3","3","agree","566.7999999523163","","","","","","","","<div style=""font-size:60px;"">?</div>","65","5","1","0.8"
"image-keyboard-response","44","590245","0.0-11.0-0.5","fh2ckdc8dprjje1","1","6111691cde8646b059403cc8","21","10/1999","Single","English","NA","Female","White or Caucasian","No","Undergraduate degree","No, currently not in school","N/A","N/A","N/A","6","1","5","1","3","0.5","stim/N000.jpg","76","76","0.9999999599999999","3","1","4","","4","3","3","1","3","2","3","4","0","3","3","3","5","6","1","5","5","1","2","2","2","4","0","5","5","5","0","5","5","5","1","1","3","0","1","4","5","5","6","5","4","4","5","5","4","1","5","4","5","4","4","4","5","5","2","3","5","3","3","3","3","agree","null","","","","","","","","stim/H150.jpg","null","","",""
"html-keyboard-response","45","590725","0.0-11.0-1.5","fh2ckdc8dprjje1","1","6111691cde8646b059403cc8","21","10/1999","Single","English","NA","Female","White or Caucasian","No","Undergraduate degree","No, currently not in school","N/A","N/A","N/A","6","1","5","1","3","0.5","stim/N000.jpg","76","76","0.9999999599999999","3","1","4","","4","3","3","1","3","2","3","4","0","3","3","3","5","6","1","5","5","1","2","2","2","4","0","5","5","5","0","5","5","5","1","1","3","0","1","4","5","5","6","5","4","4","5","5","4","1","5","4","5","4","4","4","5","5","2","3","5","3","3","3","3","agree","478.60000002384186","","","","","","","","<div style=""font-size:60px;"">?</div>","76","6","1","0.8"
"image-keyboard-response","46","591745","0.0-11.0-0.6","fh2ckdc8dprjje1","1","6111691cde8646b059403cc8","21","10/1999","Single","English","NA","Female","White or Caucasian","No","Undergraduate degree","No, currently not in school","N/A","N/A","N/A","6","1","5","1","3","0.5","stim/N000.jpg","76","76","0.9999999599999999","3","1","4","","4","3","3","1","3","2","3","4","0","3","3","3","5","6","1","5","5","1","2","2","2","4","0","5","5","5","0","5","5","5","1","1","3","0","1","4","5","5","6","5","4","4","5","5","4","1","5","4","5","4","4","4","5","5","2","3","5","3","3","3","3","agree","null","","","","","","","","stim/H050.jpg","null","","",""
"html-keyboard-response","47","592525","0.0-11.0-1.6","fh2ckdc8dprjje1","1","6111691cde8646b059403cc8","21","10/1999","Single","English","NA","Female","White or Caucasian","No","Undergraduate degree","No, currently not in school","N/A","N/A","N/A","6","1","5","1","3","0.5","stim/N000.jpg","76","76","0.9999999599999999","3","1","4","","4","3","3","1","3","2","3","4","0","3","3","3","5","6","1","5","5","1","2","2","2","4","0","5","5","5","0","5","5","5","1","1","3","0","1","4","5","5","6","5","4","4","5","5","4","1","5","4","5","4","4","4","5","5","2","3","5","3","3","3","3","agree","777.8999999761581","","","","","","","","<div style=""font-size:60px;"">?</div>","76","7","1","0.8"
"image-keyboard-response","48","593540","0.0-11.0-0.7","fh2ckdc8dprjje1","1","6111691cde8646b059403cc8","21","10/1999","Single","English","NA","Female","White or Caucasian","No","Undergraduate degree","No, currently not in school","N/A","N/A","N/A","6","1","5","1","3","0.5","stim/N000.jpg","76","76","0.9999999599999999","3","1","4","","4","3","3","1","3","2","3","4","0","3","3","3","5","6","1","5","5","1","2","2","2","4","0","5","5","5","0","5","5","5","1","1","3","0","1","4","5","5","6","5","4","4","5","5","4","1","5","4","5","4","4","4","5","5","2","3","5","3","3","3","3","agree","null","","","","","","","","stim/H080.jpg","null","","",""
"html-keyboard-response","49","594982","0.0-11.0-1.7","fh2ckdc8dprjje1","1","6111691cde8646b059403cc8","21","10/1999","Single","English","NA","Female","White or Caucasian","No","Undergraduate degree","No, currently not in school","N/A","N/A","N/A","6","1","5","1","3","0.5","stim/N000.jpg","76","76","0.9999999599999999","3","1","4","","4","3","3","1","3","2","3","4","0","3","3","3","5","6","1","5","5","1","2","2","2","4","0","5","5","5","0","5","5","5","1","1","3","0","1","4","5","5","6","5","4","4","5","5","4","1","5","4","5","4","4","4","5","5","2","3","5","3","3","3","3","agree","1440.800000011921","","","","","","","","<div style=""font-size:60px;"">?</div>","76","8","1","0.8"
"image-keyboard-response","50","595999","0.0-11.0-0.8","fh2ckdc8dprjje1","1","6111691cde8646b059403cc8","21","10/1999","Single","English","NA","Female","White or Caucasian","No","Undergraduate degree","No, currently not in school","N/A","N/A","N/A","6","1","5","1","3","0.5","stim/N000.jpg","76","76","0.9999999599999999","3","1","4","","4","3","3","1","3","2","3","4","0","3","3","3","5","6","1","5","5","1","2","2","2","4","0","5","5","5","0","5","5","5","1","1","3","0","1","4","5","5","6","5","4","4","5","5","4","1","5","4","5","4","4","4","5","5","2","3","5","3","3","3","3","agree","null","","","","","","","","stim/H070.jpg","null","","",""
"html-keyboard-response","51","597504","0.0-11.0-1.8","fh2ckdc8dprjje1","1","6111691cde8646b059403cc8","21","10/1999","Single","English","NA","Female","White or Caucasian","No","Undergraduate degree","No, currently not in school","N/A","N/A","N/A","6","1","5","1","3","0.5","stim/N000.jpg","76","76","0.9999999599999999","3","1","4","","4","3","3","1","3","2","3","4","0","3","3","3","5","6","1","5","5","1","2","2","2","4","0","5","5","5","0","5","5","5","1","1","3","0","1","4","5","5","6","5","4","4","5","5","4","1","5","4","5","4","4","4","5","5","2","3","5","3","3","3","3","agree","1503","","","","","","","","<div style=""font-size:60px;"">?</div>","76","9","1","0.8"
"image-keyboard-response","52","598516","0.0-11.0-0.9","fh2ckdc8dprjje1","1","6111691cde8646b059403cc8","21","10/1999","Single","English","NA","Female","White or Caucasian","No","Undergraduate degree","No, currently not in school","N/A","N/A","N/A","6","1","5","1","3","0.5","stim/N000.jpg","76","76","0.9999999599999999","3","1","4","","4","3","3","1","3","2","3","4","0","3","3","3","5","6","1","5","5","1","2","2","2","4","0","5","5","5","0","5","5","5","1","1","3","0","1","4","5","5","6","5","4","4","5","5","4","1","5","4","5","4","4","4","5","5","2","3","5","3","3","3","3","agree","null","","","","","","","","stim/H140.jpg","null","","",""
"html-keyboard-response","53","599330","0.0-11.0-1.9","fh2ckdc8dprjje1","1","6111691cde8646b059403cc8","21","10/1999","Single","English","NA","Female","White or Caucasian","No","Undergraduate degree","No, currently not in school","N/A","N/A","N/A","6","1","5","1","3","0.5","stim/N000.jpg","76","76","0.9999999599999999","3","1","4","","4","3","3","1","3","2","3","4","0","3","3","3","5","6","1","5","5","1","2","2","2","4","0","5","5","5","0","5","5","5","1","1","3","0","1","4","5","5","6","5","4","4","5","5","4","1","5","4","5","4","4","4","5","5","2","3","5","3","3","3","3","agree","812.6999999880791","","","","","","","","<div style=""font-size:60px;"">?</div>","76","10","1","0.8"
"image-keyboard-response","54","600345","0.0-11.0-0.10","fh2ckdc8dprjje1","1","6111691cde8646b059403cc8","21","10/1999","Single","English","NA","Female","White or Caucasian","No","Undergraduate degree","No, currently not in school","N/A","N/A","N/A","6","1","5","1","3","0.5","stim/N000.jpg","76","76","0.9999999599999999","3","1","4","","4","3","3","1","3","2","3","4","0","3","3","3","5","6","1","5","5","1","2","2","2","4","0","5","5","5","0","5","5","5","1","1","3","0","1","4","5","5","6","5","4","4","5","5","4","1","5","4","5","4","4","4","5","5","2","3","5","3","3","3","3","agree","null","","","","","","","","stim/H250.jpg","null","","",""
"html-keyboard-response","55","600677","0.0-11.0-1.10","fh2ckdc8dprjje1","1","6111691cde8646b059403cc8","21","10/1999","Single","English","NA","Female","White or Caucasian","No","Undergraduate degree","No, currently not in school","N/A","N/A","N/A","6","1","5","1","3","0.5","stim/N000.jpg","76","76","0.9999999599999999","3","1","4","","4","3","3","1","3","2","3","4","0","3","3","3","5","6","1","5","5","1","2","2","2","4","0","5","5","5","0","5","5","5","1","1","3","0","1","4","5","5","6","5","4","4","5","5","4","1","5","4","5","4","4","4","5","5","2","3","5","3","3","3","3","agree","330.39999997615814","","","","","","","","<div style=""font-size:60px;"">?</div>","76","11","1","0.8"
"image-keyboard-response","56","601685","0.0-11.0-0.11","fh2ckdc8dprjje1","1","6111691cde8646b059403cc8","21","10/1999","Single","English","NA","Female","White or Caucasian","No","Undergraduate degree","No, currently not in school","N/A","N/A","N/A","6","1","5","1","3","0.5","stim/N000.jpg","76","76","0.9999999599999999","3","1","4","","4","3","3","1","3","2","3","4","0","3","3","3","5","6","1","5","5","1","2","2","2","4","0","5","5","5","0","5","5","5","1","1","3","0","1","4","5","5","6","5","4","4","5","5","4","1","5","4","5","4","4","4","5","5","2","3","5","3","3","3","3","agree","null","","","","","","","","stim/H050.jpg","null","","",""
"html-keyboard-response","57","603145","0.0-11.0-1.11","fh2ckdc8dprjje1","1","6111691cde8646b059403cc8","21","10/1999","Single","English","NA","Female","White or Caucasian","No","Undergraduate degree","No, currently not in school","N/A","N/A","N/A","6","1","5","1","3","0.5","stim/N000.jpg","76","76","0.9999999599999999","3","1","4","","4","3","3","1","3","2","3","4","0","3","3","3","5","6","1","5","5","1","2","2","2","4","0","5","5","5","0","5","5","5","1","1","3","0","1","4","5","5","6","5","4","4","5","5","4","1","5","4","5","4","4","4","5","5","2","3","5","3","3","3","3","agree","1458.2000000476837","","","","","","","","<div style=""font-size:60px;"">?</div>","65","12","1","0.8"
"image-keyboard-response","58","604164","0.0-11.0-0.12","fh2ckdc8dprjje1","1","6111691cde8646b059403cc8","21","10/1999","Single","English","NA","Female","White or Caucasian","No","Undergraduate degree","No, currently not in school","N/A","N/A","N/A","6","1","5","1","3","0.5","stim/N000.jpg","76","76","0.9999999599999999","3","1","4","","4","3","3","1","3","2","3","4","0","3","3","3","5","6","1","5","5","1","2","2","2","4","0","5","5","5","0","5","5","5","1","1","3","0","1","4","5","5","6","5","4","4","5","5","4","1","5","4","5","4","4","4","5","5","2","3","5","3","3","3","3","agree","null","","","","","","","","stim/H030.jpg","null","","",""
"html-keyboard-response","59","604821","0.0-11.0-1.12","fh2ckdc8dprjje1","1","6111691cde8646b059403cc8","21","10/1999","Single","English","NA","Female","White or Caucasian","No","Undergraduate degree","No, currently not in school","N/A","N/A","N/A","6","1","5","1","3","0.5","stim/N000.jpg","76","76","0.9999999599999999","3","1","4","","4","3","3","1","3","2","3","4","0","3","3","3","5","6","1","5","5","1","2","2","2","4","0","5","5","5","0","5","5","5","1","1","3","0","1","4","5","5","6","5","4","4","5","5","4","1","5","4","5","4","4","4","5","5","2","3","5","3","3","3","3","agree","656","","","","","","","","<div style=""font-size:60px;"">?</div>","65","13","1","0.8"
"image-keyboard-response","60","605850","0.0-11.0-0.13","fh2ckdc8dprjje1","1","6111691cde8646b059403cc8","21","10/1999","Single","English","NA","Female","White or Caucasian","No","Undergraduate degree","No, currently not in school","N/A","N/A","N/A","6","1","5","1","3","0.5","stim/N000.jpg","76","76","0.9999999599999999","3","1","4","","4","3","3","1","3","2","3","4","0","3","3","3","5","6","1","5","5","1","2","2","2","4","0","5","5","5","0","5","5","5","1","1","3","0","1","4","5","5","6","5","4","4","5","5","4","1","5","4","5","4","4","4","5","5","2","3","5","3","3","3","3","agree","null","","","","","","","","stim/H060.jpg","null","","",""
"html-keyboard-response","61","606803","0.0-11.0-1.13","fh2ckdc8dprjje1","1","6111691cde8646b059403cc8","21","10/1999","Single","English","NA","Female","White or Caucasian","No","Undergraduate degree","No, currently not in school","N/A","N/A","N/A","6","1","5","1","3","0.5","stim/N000.jpg","76","76","0.9999999599999999","3","1","4","","4","3","3","1","3","2","3","4","0","3","3","3","5","6","1","5","5","1","2","2","2","4","0","5","5","5","0","5","5","5","1","1","3","0","1","4","5","5","6","5","4","4","5","5","4","1","5","4","5","4","4","4","5","5","2","3","5","3","3","3","3","agree","952.3999999761581","","","","","","","","<div style=""font-size:60px;"">?</div>","65","14","1","0.8"
"image-keyboard-response","62","607820","0.0-11.0-0.14","fh2ckdc8dprjje1","1","6111691cde8646b059403cc8","21","10/1999","Single","English","NA","Female","White or Caucasian","No","Undergraduate degree","No, currently not in school","N/A","N/A","N/A","6","1","5","1","3","0.5","stim/N000.jpg","76","76","0.9999999599999999","3","1","4","","4","3","3","1","3","2","3","4","0","3","3","3","5","6","1","5","5","1","2","2","2","4","0","5","5","5","0","5","5","5","1","1","3","0","1","4","5","5","6","5","4","4","5","5","4","1","5","4","5","4","4","4","5","5","2","3","5","3","3","3","3","agree","null","","","","","","","","stim/H140.jpg","null","","",""
"html-keyboard-response","63","608345","0.0-11.0-1.14","fh2ckdc8dprjje1","1","6111691cde8646b059403cc8","21","10/1999","Single","English","NA","Female","White or Caucasian","No","Undergraduate degree","No, currently not in school","N/A","N/A","N/A","6","1","5","1","3","0.5","stim/N000.jpg","76","76","0.9999999599999999","3","1","4","","4","3","3","1","3","2","3","4","0","3","3","3","5","6","1","5","5","1","2","2","2","4","0","5","5","5","0","5","5","5","1","1","3","0","1","4","5","5","6","5","4","4","5","5","4","1","5","4","5","4","4","4","5","5","2","3","5","3","3","3","3","agree","522.9000000357628","","","","","","","","<div style=""font-size:60px;"">?</div>","76","15","1","0.8"
"image-keyboard-response","64","609361","0.0-11.0-0.15","fh2ckdc8dprjje1","1","6111691cde8646b059403cc8","21","10/1999","Single","English","NA","Female","White or Caucasian","No","Undergraduate degree","No, currently not in school","N/A","N/A","N/A","6","1","5","1","3","0.5","stim/N000.jpg","76","76","0.9999999599999999","3","1","4","","4","3","3","1","3","2","3","4","0","3","3","3","5","6","1","5","5","1","2","2","2","4","0","5","5","5","0","5","5","5","1","1","3","0","1","4","5","5","6","5","4","4","5","5","4","1","5","4","5","4","4","4","5","5","2","3","5","3","3","3","3","agree","null","","","","","","","","stim/T170.jpg","null","","",""
"html-keyboard-response","65","609626","0.0-11.0-1.15","fh2ckdc8dprjje1","1","6111691cde8646b059403cc8","21","10/1999","Single","English","NA","Female","White or Caucasian","No","Undergraduate degree","No, currently not in school","N/A","N/A","N/A","6","1","5","1","3","0.5","stim/N000.jpg","76","76","0.9999999599999999","3","1","4","","4","3","3","1","3","2","3","4","0","3","3","3","5","6","1","5","5","1","2","2","2","4","0","5","5","5","0","5","5","5","1","1","3","0","1","4","5","5","6","5","4","4","5","5","4","1","5","4","5","4","4","4","5","5","2","3","5","3","3","3","3","agree","263.10000002384186","","","","","","","","<div style=""font-size:60px;"">?</div>","65","16","1","0.8"
"image-keyboard-response","66","610629","0.0-11.0-0.16","fh2ckdc8dprjje1","1","6111691cde8646b059403cc8","21","10/1999","Single","English","NA","Female","White or Caucasian","No","Undergraduate degree","No, currently not in school","N/A","N/A","N/A","6","1","5","1","3","0.5","stim/N000.jpg","76","76","0.9999999599999999","3","1","4","","4","3","3","1","3","2","3","4","0","3","3","3","5","6","1","5","5","1","2","2","2","4","0","5","5","5","0","5","5","5","1","1","3","0","1","4","5","5","6","5","4","4","5","5","4","1","5","4","5","4","4","4","5","5","2","3","5","3","3","3","3","agree","null","","","","","","","","stim/H080.jpg","null","","",""
"html-keyboard-response","67","611120","0.0-11.0-1.16","fh2ckdc8dprjje1","1","6111691cde8646b059403cc8","21","10/1999","Single","English","NA","Female","White or Caucasian","No","Undergraduate degree","No, currently not in school","N/A","N/A","N/A","6","1","5","1","3","0.5","stim/N000.jpg","76","76","0.9999999599999999","3","1","4","","4","3","3","1","3","2","3","4","0","3","3","3","5","6","1","5","5","1","2","2","2","4","0","5","5","5","0","5","5","5","1","1","3","0","1","4","5","5","6","5","4","4","5","5","4","1","5","4","5","4","4","4","5","5","2","3","5","3","3","3","3","agree","490.5","","","","","","","","<div style=""font-size:60px;"">?</div>","76","17","1","0.8"
"image-keyboard-response","68","612144","0.0-11.0-0.17","fh2ckdc8dprjje1","1","6111691cde8646b059403cc8","21","10/1999","Single","English","NA","Female","White or Caucasian","No","Undergraduate degree","No, currently not in school","N/A","N/A","N/A","6","1","5","1","3","0.5","stim/N000.jpg","76","76","0.9999999599999999","3","1","4","","4","3","3","1","3","2","3","4","0","3","3","3","5","6","1","5","5","1","2","2","2","4","0","5","5","5","0","5","5","5","1","1","3","0","1","4","5","5","6","5","4","4","5","5","4","1","5","4","5","4","4","4","5","5","2","3","5","3","3","3","3","agree","null","","","","","","","","stim/H020.jpg","null","","",""
"html-keyboard-response","69","613167","0.0-11.0-1.17","fh2ckdc8dprjje1","1","6111691cde8646b059403cc8","21","10/1999","Single","English","NA","Female","White or Caucasian","No","Undergraduate degree","No, currently not in school","N/A","N/A","N/A","6","1","5","1","3","0.5","stim/N000.jpg","76","76","0.9999999599999999","3","1","4","","4","3","3","1","3","2","3","4","0","3","3","3","5","6","1","5","5","1","2","2","2","4","0","5","5","5","0","5","5","5","1","1","3","0","1","4","5","5","6","5","4","4","5","5","4","1","5","4","5","4","4","4","5","5","2","3","5","3","3","3","3","agree","1021.8000000119209","","","","","","","","<div style=""font-size:60px;"">?</div>","65","18","1","0.8"
"image-keyboard-response","70","614199","0.0-11.0-0.18","fh2ckdc8dprjje1","1","6111691cde8646b059403cc8","21","10/1999","Single","English","NA","Female","White or Caucasian","No","Undergraduate degree","No, currently not in school","N/A","N/A","N/A","6","1","5","1","3","0.5","stim/N000.jpg","76","76","0.9999999599999999","3","1","4","","4","3","3","1","3","2","3","4","0","3","3","3","5","6","1","5","5","1","2","2","2","4","0","5","5","5","0","5","5","5","1","1","3","0","1","4","5","5","6","5","4","4","5","5","4","1","5","4","5","4","4","4","5","5","2","3","5","3","3","3","3","agree","null","","","","","","","","stim/H110.jpg","null","","",""
"html-keyboard-response","71","615134","0.0-11.0-1.18","fh2ckdc8dprjje1","1","6111691cde8646b059403cc8","21","10/1999","Single","English","NA","Female","White or Caucasian","No","Undergraduate degree","No, currently not in school","N/A","N/A","N/A","6","1","5","1","3","0.5","stim/N000.jpg","76","76","0.9999999599999999","3","1","4","","4","3","3","1","3","2","3","4","0","3","3","3","5","6","1","5","5","1","2","2","2","4","0","5","5","5","0","5","5","5","1","1","3","0","1","4","5","5","6","5","4","4","5","5","4","1","5","4","5","4","4","4","5","5","2","3","5","3","3","3","3","agree","933.8999999761581","","","","","","","","<div style=""font-size:60px;"">?</div>","76","19","1","0.8"
"image-keyboard-response","72","616142","0.0-11.0-0.19","fh2ckdc8dprjje1","1","6111691cde8646b059403cc8","21","10/1999","Single","English","NA","Female","White or Caucasian","No","Undergraduate degree","No, currently not in school","N/A","N/A","N/A","6","1","5","1","3","0.5","stim/N000.jpg","76","76","0.9999999599999999","3","1","4","","4","3","3","1","3","2","3","4","0","3","3","3","5","6","1","5","5","1","2","2","2","4","0","5","5","5","0","5","5","5","1","1","3","0","1","4","5","5","6","5","4","4","5","5","4","1","5","4","5","4","4","4","5","5","2","3","5","3","3","3","3","agree","null","","","","","","","","stim/H070.jpg","null","","",""
"html-keyboard-response","73","617259","0.0-11.0-1.19","fh2ckdc8dprjje1","1","6111691cde8646b059403cc8","21","10/1999","Single","English","NA","Female","White or Caucasian","No","Undergraduate degree","No, currently not in school","N/A","N/A","N/A","6","1","5","1","3","0.5","stim/N000.jpg","76","76","0.9999999599999999","3","1","4","","4","3","3","1","3","2","3","4","0","3","3","3","5","6","1","5","5","1","2","2","2","4","0","5","5","5","0","5","5","5","1","1","3","0","1","4","5","5","6","5","4","4","5","5","4","1","5","4","5","4","4","4","5","5","2","3","5","3","3","3","3","agree","1116.2999999523163","","","","","","","","<div style=""font-size:60px;"">?</div>","76","20","1","0.8"
"image-keyboard-response","74","618271","0.0-11.0-0.20","fh2ckdc8dprjje1","1","6111691cde8646b059403cc8","21","10/1999","Single","English","NA","Female","White or Caucasian","No","Undergraduate degree","No, currently not in school","N/A","N/A","N/A","6","1","5","1","3","0.5","stim/N000.jpg","76","76","0.9999999599999999","3","1","4","","4","3","3","1","3","2","3","4","0","3","3","3","5","6","1","5","5","1","2","2","2","4","0","5","5","5","0","5","5","5","1","1","3","0","1","4","5","5","6","5","4","4","5","5","4","1","5","4","5","4","4","4","5","5","2","3","5","3","3","3","3","agree","null","","","","","","","","stim/H060.jpg","null","","",""
"html-keyboard-response","75","619381","0.0-11.0-1.20","fh2ckdc8dprjje1","1","6111691cde8646b059403cc8","21","10/1999","Single","English","NA","Female","White or Caucasian","No","Undergraduate degree","No, currently not in school","N/A","N/A","N/A","6","1","5","1","3","0.5","stim/N000.jpg","76","76","0.9999999599999999","3","1","4","","4","3","3","1","3","2","3","4","0","3","3","3","5","6","1","5","5","1","2","2","2","4","0","5","5","5","0","5","5","5","1","1","3","0","1","4","5","5","6","5","4","4","5","5","4","1","5","4","5","4","4","4","5","5","2","3","5","3","3","3","3","agree","1107.300000011921","","","","","","","","<div style=""font-size:60px;"">?</div>","65","21","1","0.8"
"image-keyboard-response","76","620398","0.0-11.0-0.21","fh2ckdc8dprjje1","1","6111691cde8646b059403cc8","21","10/1999","Single","English","NA","Female","White or Caucasian","No","Undergraduate degree","No, currently not in school","N/A","N/A","N/A","6","1","5","1","3","0.5","stim/N000.jpg","76","76","0.9999999599999999","3","1","4","","4","3","3","1","3","2","3","4","0","3","3","3","5","6","1","5","5","1","2","2","2","4","0","5","5","5","0","5","5","5","1","1","3","0","1","4","5","5","6","5","4","4","5","5","4","1","5","4","5","4","4","4","5","5","2","3","5","3","3","3","3","agree","null","","","","","","","","stim/H250.jpg","null","","",""
"html-keyboard-response","77","620855","0.0-11.0-1.21","fh2ckdc8dprjje1","1","6111691cde8646b059403cc8","21","10/1999","Single","English","NA","Female","White or Caucasian","No","Undergraduate degree","No, currently not in school","N/A","N/A","N/A","6","1","5","1","3","0.5","stim/N000.jpg","76","76","0.9999999599999999","3","1","4","","4","3","3","1","3","2","3","4","0","3","3","3","5","6","1","5","5","1","2","2","2","4","0","5","5","5","0","5","5","5","1","1","3","0","1","4","5","5","6","5","4","4","5","5","4","1","5","4","5","4","4","4","5","5","2","3","5","3","3","3","3","agree","455.2000000476837","","","","","","","","<div style=""font-size:60px;"">?</div>","76","22","1","0.8"
"image-keyboard-response","78","621863","0.0-11.0-0.22","fh2ckdc8dprjje1","1","6111691cde8646b059403cc8","21","10/1999","Single","English","NA","Female","White or Caucasian","No","Undergraduate degree","No, currently not in school","N/A","N/A","N/A","6","1","5","1","3","0.5","stim/N000.jpg","76","76","0.9999999599999999","3","1","4","","4","3","3","1","3","2","3","4","0","3","3","3","5","6","1","5","5","1","2","2","2","4","0","5","5","5","0","5","5","5","1","1","3","0","1","4","5","5","6","5","4","4","5","5","4","1","5","4","5","4","4","4","5","5","2","3","5","3","3","3","3","agree","null","","","","","","","","stim/T230.jpg","null","","",""
"html-keyboard-response","79","622166","0.0-11.0-1.22","fh2ckdc8dprjje1","1","6111691cde8646b059403cc8","21","10/1999","Single","English","NA","Female","White or Caucasian","No","Undergraduate degree","No, currently not in school","N/A","N/A","N/A","6","1","5","1","3","0.5","stim/N000.jpg","76","76","0.9999999599999999","3","1","4","","4","3","3","1","3","2","3","4","0","3","3","3","5","6","1","5","5","1","2","2","2","4","0","5","5","5","0","5","5","5","1","1","3","0","1","4","5","5","6","5","4","4","5","5","4","1","5","4","5","4","4","4","5","5","2","3","5","3","3","3","3","agree","302.39999997615814","","","","","","","","<div style=""font-size:60px;"">?</div>","65","23","1","0.8"
"image-keyboard-response","80","623188","0.0-11.0-0.23","fh2ckdc8dprjje1","1","6111691cde8646b059403cc8","21","10/1999","Single","English","NA","Female","White or Caucasian","No","Undergraduate degree","No, currently not in school","N/A","N/A","N/A","6","1","5","1","3","0.5","stim/N000.jpg","76","76","0.9999999599999999","3","1","4","","4","3","3","1","3","2","3","4","0","3","3","3","5","6","1","5","5","1","2","2","2","4","0","5","5","5","0","5","5","5","1","1","3","0","1","4","5","5","6","5","4","4","5","5","4","1","5","4","5","4","4","4","5","5","2","3","5","3","3","3","3","agree","null","","","","","","","","stim/H250.jpg","null","","",""
"html-keyboard-response","81","623490","0.0-11.0-1.23","fh2ckdc8dprjje1","1","6111691cde8646b059403cc8","21","10/1999","Single","English","NA","Female","White or Caucasian","No","Undergraduate degree","No, currently not in school","N/A","N/A","N/A","6","1","5","1","3","0.5","stim/N000.jpg","76","76","0.9999999599999999","3","1","4","","4","3","3","1","3","2","3","4","0","3","3","3","5","6","1","5","5","1","2","2","2","4","0","5","5","5","0","5","5","5","1","1","3","0","1","4","5","5","6","5","4","4","5","5","4","1","5","4","5","4","4","4","5","5","2","3","5","3","3","3","3","agree","299.89999997615814","","","","","","","","<div style=""font-size:60px;"">?</div>","76","24","1","0.8"
"image-keyboard-response","82","624504","0.0-11.0-0.24","fh2ckdc8dprjje1","1","6111691cde8646b059403cc8","21","10/1999","Single","English","NA","Female","White or Caucasian","No","Undergraduate degree","No, currently not in school","N/A","N/A","N/A","6","1","5","1","3","0.5","stim/N000.jpg","76","76","0.9999999599999999","3","1","4","","4","3","3","1","3","2","3","4","0","3","3","3","5","6","1","5","5","1","2","2","2","4","0","5","5","5","0","5","5","5","1","1","3","0","1","4","5","5","6","5","4","4","5","5","4","1","5","4","5","4","4","4","5","5","2","3","5","3","3","3","3","agree","null","","","","","","","","stim/H150.jpg","null","","",""
"html-keyboard-response","83","624918","0.0-11.0-1.24","fh2ckdc8dprjje1","1","6111691cde8646b059403cc8","21","10/1999","Single","English","NA","Female","White or Caucasian","No","Undergraduate degree","No, currently not in school","N/A","N/A","N/A","6","1","5","1","3","0.5","stim/N000.jpg","76","76","0.9999999599999999","3","1","4","","4","3","3","1","3","2","3","4","0","3","3","3","5","6","1","5","5","1","2","2","2","4","0","5","5","5","0","5","5","5","1","1","3","0","1","4","5","5","6","5","4","4","5","5","4","1","5","4","5","4","4","4","5","5","2","3","5","3","3","3","3","agree","411.80000001192093","","","","","","","","<div style=""font-size:60px;"">?</div>","76","25","1","0.8"
"image-keyboard-response","84","625937","0.0-11.0-0.25","fh2ckdc8dprjje1","1","6111691cde8646b059403cc8","21","10/1999","Single","English","NA","Female","White or Caucasian","No","Undergraduate degree","No, currently not in school","N/A","N/A","N/A","6","1","5","1","3","0.5","stim/N000.jpg","76","76","0.9999999599999999","3","1","4","","4","3","3","1","3","2","3","4","0","3","3","3","5","6","1","5","5","1","2","2","2","4","0","5","5","5","0","5","5","5","1","1","3","0","1","4","5","5","6","5","4","4","5","5","4","1","5","4","5","4","4","4","5","5","2","3","5","3","3","3","3","agree","null","","","","","","","","stim/H040.jpg","null","","",""
"html-keyboard-response","85","626322","0.0-11.0-1.25","fh2ckdc8dprjje1","1","6111691cde8646b059403cc8","21","10/1999","Single","English","NA","Female","White or Caucasian","No","Undergraduate degree","No, currently not in school","N/A","N/A","N/A","6","1","5","1","3","0.5","stim/N000.jpg","76","76","0.9999999599999999","3","1","4","","4","3","3","1","3","2","3","4","0","3","3","3","5","6","1","5","5","1","2","2","2","4","0","5","5","5","0","5","5","5","1","1","3","0","1","4","5","5","6","5","4","4","5","5","4","1","5","4","5","4","4","4","5","5","2","3","5","3","3","3","3","agree","383","","","","","","","","<div style=""font-size:60px;"">?</div>","76","26","1","0.8"
"image-keyboard-response","86","627327","0.0-11.0-0.26","fh2ckdc8dprjje1","1","6111691cde8646b059403cc8","21","10/1999","Single","English","NA","Female","White or Caucasian","No","Undergraduate degree","No, currently not in school","N/A","N/A","N/A","6","1","5","1","3","0.5","stim/N000.jpg","76","76","0.9999999599999999","3","1","4","","4","3","3","1","3","2","3","4","0","3","3","3","5","6","1","5","5","1","2","2","2","4","0","5","5","5","0","5","5","5","1","1","3","0","1","4","5","5","6","5","4","4","5","5","4","1","5","4","5","4","4","4","5","5","2","3","5","3","3","3","3","agree","null","","","","","","","","stim/T130.jpg","null","","",""
"html-keyboard-response","87","627668","0.0-11.0-1.26","fh2ckdc8dprjje1","1","6111691cde8646b059403cc8","21","10/1999","Single","English","NA","Female","White or Caucasian","No","Undergraduate degree","No, currently not in school","N/A","N/A","N/A","6","1","5","1","3","0.5","stim/N000.jpg","76","76","0.9999999599999999","3","1","4","","4","3","3","1","3","2","3","4","0","3","3","3","5","6","1","5","5","1","2","2","2","4","0","5","5","5","0","5","5","5","1","1","3","0","1","4","5","5","6","5","4","4","5","5","4","1","5","4","5","4","4","4","5","5","2","3","5","3","3","3","3","agree","339.7000000476837","","","","","","","","<div style=""font-size:60px;"">?</div>","65","27","1","0.8"
"image-keyboard-response","88","628674","0.0-11.0-0.27","fh2ckdc8dprjje1","1","6111691cde8646b059403cc8","21","10/1999","Single","English","NA","Female","White or Caucasian","No","Undergraduate degree","No, currently not in school","N/A","N/A","N/A","6","1","5","1","3","0.5","stim/N000.jpg","76","76","0.9999999599999999","3","1","4","","4","3","3","1","3","2","3","4","0","3","3","3","5","6","1","5","5","1","2","2","2","4","0","5","5","5","0","5","5","5","1","1","3","0","1","4","5","5","6","5","4","4","5","5","4","1","5","4","5","4","4","4","5","5","2","3","5","3","3","3","3","agree","null","","","","","","","","stim/H010.jpg","null","","",""
"html-keyboard-response","89","629452","0.0-11.0-1.27","fh2ckdc8dprjje1","1","6111691cde8646b059403cc8","21","10/1999","Single","English","NA","Female","White or Caucasian","No","Undergraduate degree","No, currently not in school","N/A","N/A","N/A","6","1","5","1","3","0.5","stim/N000.jpg","76","76","0.9999999599999999","3","1","4","","4","3","3","1","3","2","3","4","0","3","3","3","5","6","1","5","5","1","2","2","2","4","0","5","5","5","0","5","5","5","1","1","3","0","1","4","5","5","6","5","4","4","5","5","4","1","5","4","5","4","4","4","5","5","2","3","5","3","3","3","3","agree","776.3000000119209","","","","","","","","<div style=""font-size:60px;"">?</div>","76","28","1","0.8"
"image-keyboard-response","90","630473","0.0-11.0-0.28","fh2ckdc8dprjje1","1","6111691cde8646b059403cc8","21","10/1999","Single","English","NA","Female","White or Caucasian","No","Undergraduate degree","No, currently not in school","N/A","N/A","N/A","6","1","5","1","3","0.5","stim/N000.jpg","76","76","0.9999999599999999","3","1","4","","4","3","3","1","3","2","3","4","0","3","3","3","5","6","1","5","5","1","2","2","2","4","0","5","5","5","0","5","5","5","1","1","3","0","1","4","5","5","6","5","4","4","5","5","4","1","5","4","5","4","4","4","5","5","2","3","5","3","3","3","3","agree","null","","","","","","","","stim/H230.jpg","null","","",""
"html-keyboard-response","91","630850","0.0-11.0-1.28","fh2ckdc8dprjje1","1","6111691cde8646b059403cc8","21","10/1999","Single","English","NA","Female","White or Caucasian","No","Undergraduate degree","No, currently not in school","N/A","N/A","N/A","6","1","5","1","3","0.5","stim/N000.jpg","76","76","0.9999999599999999","3","1","4","","4","3","3","1","3","2","3","4","0","3","3","3","5","6","1","5","5","1","2","2","2","4","0","5","5","5","0","5","5","5","1","1","3","0","1","4","5","5","6","5","4","4","5","5","4","1","5","4","5","4","4","4","5","5","2","3","5","3","3","3","3","agree","375.5","","","","","","","","<div style=""font-size:60px;"">?</div>","76","29","1","0.8"
"image-keyboard-response","92","631877","0.0-11.0-0.29","fh2ckdc8dprjje1","1","6111691cde8646b059403cc8","21","10/1999","Single","English","NA","Female","White or Caucasian","No","Undergraduate degree","No, currently not in school","N/A","N/A","N/A","6","1","5","1","3","0.5","stim/N000.jpg","76","76","0.9999999599999999","3","1","4","","4","3","3","1","3","2","3","4","0","3","3","3","5","6","1","5","5","1","2","2","2","4","0","5","5","5","0","5","5","5","1","1","3","0","1","4","5","5","6","5","4","4","5","5","4","1","5","4","5","4","4","4","5","5","2","3","5","3","3","3","3","agree","null","","","","","","","","stim/H150.jpg","null","","",""
"html-keyboard-response","93","632173","0.0-11.0-1.29","fh2ckdc8dprjje1","1","6111691cde8646b059403cc8","21","10/1999","Single","English","NA","Female","White or Caucasian","No","Undergraduate degree","No, currently not in school","N/A","N/A","N/A","6","1","5","1","3","0.5","stim/N000.jpg","76","76","0.9999999599999999","3","1","4","","4","3","3","1","3","2","3","4","0","3","3","3","5","6","1","5","5","1","2","2","2","4","0","5","5","5","0","5","5","5","1","1","3","0","1","4","5","5","6","5","4","4","5","5","4","1","5","4","5","4","4","4","5","5","2","3","5","3","3","3","3","agree","294.5","","","","","","","","<div style=""font-size:60px;"">?</div>","76","30","1","0.8"
"image-keyboard-response","94","633183","0.0-11.0-0.30","fh2ckdc8dprjje1","1","6111691cde8646b059403cc8","21","10/1999","Single","English","NA","Female","White or Caucasian","No","Undergraduate degree","No, currently not in school","N/A","N/A","N/A","6","1","5","1","3","0.5","stim/N000.jpg","76","76","0.9999999599999999","3","1","4","","4","3","3","1","3","2","3","4","0","3","3","3","5","6","1","5","5","1","2","2","2","4","0","5","5","5","0","5","5","5","1","1","3","0","1","4","5","5","6","5","4","4","5","5","4","1","5","4","5","4","4","4","5","5","2","3","5","3","3","3","3","agree","null","","","","","","","","stim/H090.jpg","null","","",""
"html-keyboard-response","95","633515","0.0-11.0-1.30","fh2ckdc8dprjje1","1","6111691cde8646b059403cc8","21","10/1999","Single","English","NA","Female","White or Caucasian","No","Undergraduate degree","No, currently not in school","N/A","N/A","N/A","6","1","5","1","3","0.5","stim/N000.jpg","76","76","0.9999999599999999","3","1","4","","4","3","3","1","3","2","3","4","0","3","3","3","5","6","1","5","5","1","2","2","2","4","0","5","5","5","0","5","5","5","1","1","3","0","1","4","5","5","6","5","4","4","5","5","4","1","5","4","5","4","4","4","5","5","2","3","5","3","3","3","3","agree","329","","","","","","","","<div style=""font-size:60px;"">?</div>","76","31","1","0.8"
"image-keyboard-response","96","634531","0.0-11.0-0.31","fh2ckdc8dprjje1","1","6111691cde8646b059403cc8","21","10/1999","Single","English","NA","Female","White or Caucasian","No","Undergraduate degree","No, currently not in school","N/A","N/A","N/A","6","1","5","1","3","0.5","stim/N000.jpg","76","76","0.9999999599999999","3","1","4","","4","3","3","1","3","2","3","4","0","3","3","3","5","6","1","5","5","1","2","2","2","4","0","5","5","5","0","5","5","5","1","1","3","0","1","4","5","5","6","5","4","4","5","5","4","1","5","4","5","4","4","4","5","5","2","3","5","3","3","3","3","agree","null","","","","","","","","stim/H190.jpg","null","","",""
"html-keyboard-response","97","635000","0.0-11.0-1.31","fh2ckdc8dprjje1","1","6111691cde8646b059403cc8","21","10/1999","Single","English","NA","Female","White or Caucasian","No","Undergraduate degree","No, currently not in school","N/A","N/A","N/A","6","1","5","1","3","0.5","stim/N000.jpg","76","76","0.9999999599999999","3","1","4","","4","3","3","1","3","2","3","4","0","3","3","3","5","6","1","5","5","1","2","2","2","4","0","5","5","5","0","5","5","5","1","1","3","0","1","4","5","5","6","5","4","4","5","5","4","1","5","4","5","4","4","4","5","5","2","3","5","3","3","3","3","agree","468.10000002384186","","","","","","","","<div style=""font-size:60px;"">?</div>","76","32","1","0.8"
"image-keyboard-response","98","636027","0.0-11.0-0.32","fh2ckdc8dprjje1","1","6111691cde8646b059403cc8","21","10/1999","Single","English","NA","Female","White or Caucasian","No","Undergraduate degree","No, currently not in school","N/A","N/A","N/A","6","1","5","1","3","0.5","stim/N000.jpg","76","76","0.9999999599999999","3","1","4","","4","3","3","1","3","2","3","4","0","3","3","3","5","6","1","5","5","1","2","2","2","4","0","5","5","5","0","5","5","5","1","1","3","0","1","4","5","5","6","5","4","4","5","5","4","1","5","4","5","4","4","4","5","5","2","3","5","3","3","3","3","agree","null","","","","","","","","stim/H180.jpg","null","","",""
"html-keyboard-response","99","636695","0.0-11.0-1.32","fh2ckdc8dprjje1","1","6111691cde8646b059403cc8","21","10/1999","Single","English","NA","Female","White or Caucasian","No","Undergraduate degree","No, currently not in school","N/A","N/A","N/A","6","1","5","1","3","0.5","stim/N000.jpg","76","76","0.9999999599999999","3","1","4","","4","3","3","1","3","2","3","4","0","3","3","3","5","6","1","5","5","1","2","2","2","4","0","5","5","5","0","5","5","5","1","1","3","0","1","4","5","5","6","5","4","4","5","5","4","1","5","4","5","4","4","4","5","5","2","3","5","3","3","3","3","agree","666.9000000357628","","","","","","","","<div style=""font-size:60px;"">?</div>","76","33","1","0.8"
"image-keyboard-response","100","637707","0.0-11.0-0.33","fh2ckdc8dprjje1","1","6111691cde8646b059403cc8","21","10/1999","Single","English","NA","Female","White or Caucasian","No","Undergraduate degree","No, currently not in school","N/A","N/A","N/A","6","1","5","1","3","0.5","stim/N000.jpg","76","76","0.9999999599999999","3","1","4","","4","3","3","1","3","2","3","4","0","3","3","3","5","6","1","5","5","1","2","2","2","4","0","5","5","5","0","5","5","5","1","1","3","0","1","4","5","5","6","5","4","4","5","5","4","1","5","4","5","4","4","4","5","5","2","3","5","3","3","3","3","agree","null","","","","","","","","stim/H220.jpg","null","","",""
"html-keyboard-response","101","638486","0.0-11.0-1.33","fh2ckdc8dprjje1","1","6111691cde8646b059403cc8","21","10/1999","Single","English","NA","Female","White or Caucasian","No","Undergraduate degree","No, currently not in school","N/A","N/A","N/A","6","1","5","1","3","0.5","stim/N000.jpg","76","76","0.9999999599999999","3","1","4","","4","3","3","1","3","2","3","4","0","3","3","3","5","6","1","5","5","1","2","2","2","4","0","5","5","5","0","5","5","5","1","1","3","0","1","4","5","5","6","5","4","4","5","5","4","1","5","4","5","4","4","4","5","5","2","3","5","3","3","3","3","agree","778.1000000238419","","","","","","","","<div style=""font-size:60px;"">?</div>","76","34","1","0.8"
"image-keyboard-response","102","639502","0.0-11.0-0.34","fh2ckdc8dprjje1","1","6111691cde8646b059403cc8","21","10/1999","Single","English","NA","Female","White or Caucasian","No","Undergraduate degree","No, currently not in school","N/A","N/A","N/A","6","1","5","1","3","0.5","stim/N000.jpg","76","76","0.9999999599999999","3","1","4","","4","3","3","1","3","2","3","4","0","3","3","3","5","6","1","5","5","1","2","2","2","4","0","5","5","5","0","5","5","5","1","1","3","0","1","4","5","5","6","5","4","4","5","5","4","1","5","4","5","4","4","4","5","5","2","3","5","3","3","3","3","agree","null","","","","","","","","stim/T060.jpg","null","","",""
"html-keyboard-response","103","639855","0.0-11.0-1.34","fh2ckdc8dprjje1","1","6111691cde8646b059403cc8","21","10/1999","Single","English","NA","Female","White or Caucasian","No","Undergraduate degree","No, currently not in school","N/A","N/A","N/A","6","1","5","1","3","0.5","stim/N000.jpg","76","76","0.9999999599999999","3","1","4","","4","3","3","1","3","2","3","4","0","3","3","3","5","6","1","5","5","1","2","2","2","4","0","5","5","5","0","5","5","5","1","1","3","0","1","4","5","5","6","5","4","4","5","5","4","1","5","4","5","4","4","4","5","5","2","3","5","3","3","3","3","agree","351.39999997615814","","","","","","","","<div style=""font-size:60px;"">?</div>","65","35","1","0.8"
"image-keyboard-response","104","640876","0.0-11.0-0.35","fh2ckdc8dprjje1","1","6111691cde8646b059403cc8","21","10/1999","Single","English","NA","Female","White or Caucasian","No","Undergraduate degree","No, currently not in school","N/A","N/A","N/A","6","1","5","1","3","0.5","stim/N000.jpg","76","76","0.9999999599999999","3","1","4","","4","3","3","1","3","2","3","4","0","3","3","3","5","6","1","5","5","1","2","2","2","4","0","5","5","5","0","5","5","5","1","1","3","0","1","4","5","5","6","5","4","4","5","5","4","1","5","4","5","4","4","4","5","5","2","3","5","3","3","3","3","agree","null","","","","","","","","stim/T170.jpg","null","","",""
"html-keyboard-response","105","641896","0.0-11.0-1.35","fh2ckdc8dprjje1","1","6111691cde8646b059403cc8","21","10/1999","Single","English","NA","Female","White or Caucasian","No","Undergraduate degree","No, currently not in school","N/A","N/A","N/A","6","1","5","1","3","0.5","stim/N000.jpg","76","76","0.9999999599999999","3","1","4","","4","3","3","1","3","2","3","4","0","3","3","3","5","6","1","5","5","1","2","2","2","4","0","5","5","5","0","5","5","5","1","1","3","0","1","4","5","5","6","5","4","4","5","5","4","1","5","4","5","4","4","4","5","5","2","3","5","3","3","3","3","agree","1018.6999999880791","","","","","","","","<div style=""font-size:60px;"">?</div>","65","36","1","0.8"
"image-keyboard-response","106","642912","0.0-11.0-0.36","fh2ckdc8dprjje1","1","6111691cde8646b059403cc8","21","10/1999","Single","English","NA","Female","White or Caucasian","No","Undergraduate degree","No, currently not in school","N/A","N/A","N/A","6","1","5","1","3","0.5","stim/N000.jpg","76","76","0.9999999599999999","3","1","4","","4","3","3","1","3","2","3","4","0","3","3","3","5","6","1","5","5","1","2","2","2","4","0","5","5","5","0","5","5","5","1","1","3","0","1","4","5","5","6","5","4","4","5","5","4","1","5","4","5","4","4","4","5","5","2","3","5","3","3","3","3","agree","null","","","","","","","","stim/H250.jpg","null","","",""
"html-keyboard-response","107","643258","0.0-11.0-1.36","fh2ckdc8dprjje1","1","6111691cde8646b059403cc8","21","10/1999","Single","English","NA","Female","White or Caucasian","No","Undergraduate degree","No, currently not in school","N/A","N/A","N/A","6","1","5","1","3","0.5","stim/N000.jpg","76","76","0.9999999599999999","3","1","4","","4","3","3","1","3","2","3","4","0","3","3","3","5","6","1","5","5","1","2","2","2","4","0","5","5","5","0","5","5","5","1","1","3","0","1","4","5","5","6","5","4","4","5","5","4","1","5","4","5","4","4","4","5","5","2","3","5","3","3","3","3","agree","344.69999998807907","","","","","","","","<div style=""font-size:60px;"">?</div>","76","37","1","0.8"
"image-keyboard-response","108","644283","0.0-11.0-0.37","fh2ckdc8dprjje1","1","6111691cde8646b059403cc8","21","10/1999","Single","English","NA","Female","White or Caucasian","No","Undergraduate degree","No, currently not in school","N/A","N/A","N/A","6","1","5","1","3","0.5","stim/N000.jpg","76","76","0.9999999599999999","3","1","4","","4","3","3","1","3","2","3","4","0","3","3","3","5","6","1","5","5","1","2","2","2","4","0","5","5","5","0","5","5","5","1","1","3","0","1","4","5","5","6","5","4","4","5","5","4","1","5","4","5","4","4","4","5","5","2","3","5","3","3","3","3","agree","null","","","","","","","","stim/H120.jpg","null","","",""
"html-keyboard-response","109","644816","0.0-11.0-1.37","fh2ckdc8dprjje1","1","6111691cde8646b059403cc8","21","10/1999","Single","English","NA","Female","White or Caucasian","No","Undergraduate degree","No, currently not in school","N/A","N/A","N/A","6","1","5","1","3","0.5","stim/N000.jpg","76","76","0.9999999599999999","3","1","4","","4","3","3","1","3","2","3","4","0","3","3","3","5","6","1","5","5","1","2","2","2","4","0","5","5","5","0","5","5","5","1","1","3","0","1","4","5","5","6","5","4","4","5","5","4","1","5","4","5","4","4","4","5","5","2","3","5","3","3","3","3","agree","530.4000000357628","","","","","","","","<div style=""font-size:60px;"">?</div>","76","38","1","0.8"
"image-keyboard-response","110","645840","0.0-11.0-0.38","fh2ckdc8dprjje1","1","6111691cde8646b059403cc8","21","10/1999","Single","English","NA","Female","White or Caucasian","No","Undergraduate degree","No, currently not in school","N/A","N/A","N/A","6","1","5","1","3","0.5","stim/N000.jpg","76","76","0.9999999599999999","3","1","4","","4","3","3","1","3","2","3","4","0","3","3","3","5","6","1","5","5","1","2","2","2","4","0","5","5","5","0","5","5","5","1","1","3","0","1","4","5","5","6","5","4","4","5","5","4","1","5","4","5","4","4","4","5","5","2","3","5","3","3","3","3","agree","null","","","","","","","","stim/H270.jpg","null","","",""
"html-keyboard-response","111","646211","0.0-11.0-1.38","fh2ckdc8dprjje1","1","6111691cde8646b059403cc8","21","10/1999","Single","English","NA","Female","White or Caucasian","No","Undergraduate degree","No, currently not in school","N/A","N/A","N/A","6","1","5","1","3","0.5","stim/N000.jpg","76","76","0.9999999599999999","3","1","4","","4","3","3","1","3","2","3","4","0","3","3","3","5","6","1","5","5","1","2","2","2","4","0","5","5","5","0","5","5","5","1","1","3","0","1","4","5","5","6","5","4","4","5","5","4","1","5","4","5","4","4","4","5","5","2","3","5","3","3","3","3","agree","368.80000001192093","","","","","","","","<div style=""font-size:60px;"">?</div>","76","39","1","0.8"
"image-keyboard-response","112","647216","0.0-11.0-0.39","fh2ckdc8dprjje1","1","6111691cde8646b059403cc8","21","10/1999","Single","English","NA","Female","White or Caucasian","No","Undergraduate degree","No, currently not in school","N/A","N/A","N/A","6","1","5","1","3","0.5","stim/N000.jpg","76","76","0.9999999599999999","3","1","4","","4","3","3","1","3","2","3","4","0","3","3","3","5","6","1","5","5","1","2","2","2","4","0","5","5","5","0","5","5","5","1","1","3","0","1","4","5","5","6","5","4","4","5","5","4","1","5","4","5","4","4","4","5","5","2","3","5","3","3","3","3","agree","null","","","","","","","","stim/T110.jpg","null","","",""
"html-keyboard-response","113","647511","0.0-11.0-1.39","fh2ckdc8dprjje1","1","6111691cde8646b059403cc8","21","10/1999","Single","English","NA","Female","White or Caucasian","No","Undergraduate degree","No, currently not in school","N/A","N/A","N/A","6","1","5","1","3","0.5","stim/N000.jpg","76","76","0.9999999599999999","3","1","4","","4","3","3","1","3","2","3","4","0","3","3","3","5","6","1","5","5","1","2","2","2","4","0","5","5","5","0","5","5","5","1","1","3","0","1","4","5","5","6","5","4","4","5","5","4","1","5","4","5","4","4","4","5","5","2","3","5","3","3","3","3","agree","293.69999998807907","","","","","","","","<div style=""font-size:60px;"">?</div>","65","40","1","0.8"
"image-keyboard-response","114","648528","0.0-11.0-0.40","fh2ckdc8dprjje1","1","6111691cde8646b059403cc8","21","10/1999","Single","English","NA","Female","White or Caucasian","No","Undergraduate degree","No, currently not in school","N/A","N/A","N/A","6","1","5","1","3","0.5","stim/N000.jpg","76","76","0.9999999599999999","3","1","4","","4","3","3","1","3","2","3","4","0","3","3","3","5","6","1","5","5","1","2","2","2","4","0","5","5","5","0","5","5","5","1","1","3","0","1","4","5","5","6","5","4","4","5","5","4","1","5","4","5","4","4","4","5","5","2","3","5","3","3","3","3","agree","null","","","","","","","","stim/T270.jpg","null","","",""
"html-keyboard-response","115","648782","0.0-11.0-1.40","fh2ckdc8dprjje1","1","6111691cde8646b059403cc8","21","10/1999","Single","English","NA","Female","White or Caucasian","No","Undergraduate degree","No, currently not in school","N/A","N/A","N/A","6","1","5","1","3","0.5","stim/N000.jpg","76","76","0.9999999599999999","3","1","4","","4","3","3","1","3","2","3","4","0","3","3","3","5","6","1","5","5","1","2","2","2","4","0","5","5","5","0","5","5","5","1","1","3","0","1","4","5","5","6","5","4","4","5","5","4","1","5","4","5","4","4","4","5","5","2","3","5","3","3","3","3","agree","250.9000000357628","","","","","","","","<div style=""font-size:60px;"">?</div>","65","41","1","0.8"
"image-keyboard-response","116","649809","0.0-11.0-0.41","fh2ckdc8dprjje1","1","6111691cde8646b059403cc8","21","10/1999","Single","English","NA","Female","White or Caucasian","No","Undergraduate degree","No, currently not in school","N/A","N/A","N/A","6","1","5","1","3","0.5","stim/N000.jpg","76","76","0.9999999599999999","3","1","4","","4","3","3","1","3","2","3","4","0","3","3","3","5","6","1","5","5","1","2","2","2","4","0","5","5","5","0","5","5","5","1","1","3","0","1","4","5","5","6","5","4","4","5","5","4","1","5","4","5","4","4","4","5","5","2","3","5","3","3","3","3","agree","null","","","","","","","","stim/H060.jpg","null","","",""
"html-keyboard-response","117","650414","0.0-11.0-1.41","fh2ckdc8dprjje1","1","6111691cde8646b059403cc8","21","10/1999","Single","English","NA","Female","White or Caucasian","No","Undergraduate degree","No, currently not in school","N/A","N/A","N/A","6","1","5","1","3","0.5","stim/N000.jpg","76","76","0.9999999599999999","3","1","4","","4","3","3","1","3","2","3","4","0","3","3","3","5","6","1","5","5","1","2","2","2","4","0","5","5","5","0","5","5","5","1","1","3","0","1","4","5","5","6","5","4","4","5","5","4","1","5","4","5","4","4","4","5","5","2","3","5","3","3","3","3","agree","604.6000000238419","","","","","","","","<div style=""font-size:60px;"">?</div>","65","42","1","0.8"
"image-keyboard-response","118","651429","0.0-11.0-0.42","fh2ckdc8dprjje1","1","6111691cde8646b059403cc8","21","10/1999","Single","English","NA","Female","White or Caucasian","No","Undergraduate degree","No, currently not in school","N/A","N/A","N/A","6","1","5","1","3","0.5","stim/N000.jpg","76","76","0.9999999599999999","3","1","4","","4","3","3","1","3","2","3","4","0","3","3","3","5","6","1","5","5","1","2","2","2","4","0","5","5","5","0","5","5","5","1","1","3","0","1","4","5","5","6","5","4","4","5","5","4","1","5","4","5","4","4","4","5","5","2","3","5","3","3","3","3","agree","null","","","","","","","","stim/T160.jpg","null","","",""
"html-keyboard-response","119","651787","0.0-11.0-1.42","fh2ckdc8dprjje1","1","6111691cde8646b059403cc8","21","10/1999","Single","English","NA","Female","White or Caucasian","No","Undergraduate degree","No, currently not in school","N/A","N/A","N/A","6","1","5","1","3","0.5","stim/N000.jpg","76","76","0.9999999599999999","3","1","4","","4","3","3","1","3","2","3","4","0","3","3","3","5","6","1","5","5","1","2","2","2","4","0","5","5","5","0","5","5","5","1","1","3","0","1","4","5","5","6","5","4","4","5","5","4","1","5","4","5","4","4","4","5","5","2","3","5","3","3","3","3","agree","354.80000001192093","","","","","","","","<div style=""font-size:60px;"">?</div>","65","43","1","0.8"
"image-keyboard-response","120","652797","0.0-11.0-0.43","fh2ckdc8dprjje1","1","6111691cde8646b059403cc8","21","10/1999","Single","English","NA","Female","White or Caucasian","No","Undergraduate degree","No, currently not in school","N/A","N/A","N/A","6","1","5","1","3","0.5","stim/N000.jpg","76","76","0.9999999599999999","3","1","4","","4","3","3","1","3","2","3","4","0","3","3","3","5","6","1","5","5","1","2","2","2","4","0","5","5","5","0","5","5","5","1","1","3","0","1","4","5","5","6","5","4","4","5","5","4","1","5","4","5","4","4","4","5","5","2","3","5","3","3","3","3","agree","null","","","","","","","","stim/H160.jpg","null","","",""
"html-keyboard-response","121","653322","0.0-11.0-1.43","fh2ckdc8dprjje1","1","6111691cde8646b059403cc8","21","10/1999","Single","English","NA","Female","White or Caucasian","No","Undergraduate degree","No, currently not in school","N/A","N/A","N/A","6","1","5","1","3","0.5","stim/N000.jpg","76","76","0.9999999599999999","3","1","4","","4","3","3","1","3","2","3","4","0","3","3","3","5","6","1","5","5","1","2","2","2","4","0","5","5","5","0","5","5","5","1","1","3","0","1","4","5","5","6","5","4","4","5","5","4","1","5","4","5","4","4","4","5","5","2","3","5","3","3","3","3","agree","521.8999999761581","","","","","","","","<div style=""font-size:60px;"">?</div>","76","44","1","0.8"
"image-keyboard-response","122","654341","0.0-11.0-0.44","fh2ckdc8dprjje1","1","6111691cde8646b059403cc8","21","10/1999","Single","English","NA","Female","White or Caucasian","No","Undergraduate degree","No, currently not in school","N/A","N/A","N/A","6","1","5","1","3","0.5","stim/N000.jpg","76","76","0.9999999599999999","3","1","4","","4","3","3","1","3","2","3","4","0","3","3","3","5","6","1","5","5","1","2","2","2","4","0","5","5","5","0","5","5","5","1","1","3","0","1","4","5","5","6","5","4","4","5","5","4","1","5","4","5","4","4","4","5","5","2","3","5","3","3","3","3","agree","null","","","","","","","","stim/H060.jpg","null","","",""
"html-keyboard-response","123","654693","0.0-11.0-1.44","fh2ckdc8dprjje1","1","6111691cde8646b059403cc8","21","10/1999","Single","English","NA","Female","White or Caucasian","No","Undergraduate degree","No, currently not in school","N/A","N/A","N/A","6","1","5","1","3","0.5","stim/N000.jpg","76","76","0.9999999599999999","3","1","4","","4","3","3","1","3","2","3","4","0","3","3","3","5","6","1","5","5","1","2","2","2","4","0","5","5","5","0","5","5","5","1","1","3","0","1","4","5","5","6","5","4","4","5","5","4","1","5","4","5","4","4","4","5","5","2","3","5","3","3","3","3","agree","350.5","","","","","","","","<div style=""font-size:60px;"">?</div>","76","45","1","0.8"
"image-keyboard-response","124","655707","0.0-11.0-0.45","fh2ckdc8dprjje1","1","6111691cde8646b059403cc8","21","10/1999","Single","English","NA","Female","White or Caucasian","No","Undergraduate degree","No, currently not in school","N/A","N/A","N/A","6","1","5","1","3","0.5","stim/N000.jpg","76","76","0.9999999599999999","3","1","4","","4","3","3","1","3","2","3","4","0","3","3","3","5","6","1","5","5","1","2","2","2","4","0","5","5","5","0","5","5","5","1","1","3","0","1","4","5","5","6","5","4","4","5","5","4","1","5","4","5","4","4","4","5","5","2","3","5","3","3","3","3","agree","null","","","","","","","","stim/H230.jpg","null","","",""
"html-keyboard-response","125","656190","0.0-11.0-1.45","fh2ckdc8dprjje1","1","6111691cde8646b059403cc8","21","10/1999","Single","English","NA","Female","White or Caucasian","No","Undergraduate degree","No, currently not in school","N/A","N/A","N/A","6","1","5","1","3","0.5","stim/N000.jpg","76","76","0.9999999599999999","3","1","4","","4","3","3","1","3","2","3","4","0","3","3","3","5","6","1","5","5","1","2","2","2","4","0","5","5","5","0","5","5","5","1","1","3","0","1","4","5","5","6","5","4","4","5","5","4","1","5","4","5","4","4","4","5","5","2","3","5","3","3","3","3","agree","481.4000000357628","","","","","","","","<div style=""font-size:60px;"">?</div>","76","46","1","0.8"
"image-keyboard-response","126","657192","0.0-11.0-0.46","fh2ckdc8dprjje1","1","6111691cde8646b059403cc8","21","10/1999","Single","English","NA","Female","White or Caucasian","No","Undergraduate degree","No, currently not in school","N/A","N/A","N/A","6","1","5","1","3","0.5","stim/N000.jpg","76","76","0.9999999599999999","3","1","4","","4","3","3","1","3","2","3","4","0","3","3","3","5","6","1","5","5","1","2","2","2","4","0","5","5","5","0","5","5","5","1","1","3","0","1","4","5","5","6","5","4","4","5","5","4","1","5","4","5","4","4","4","5","5","2","3","5","3","3","3","3","agree","null","","","","","","","","stim/H200.jpg","null","","",""
"html-keyboard-response","127","657623","0.0-11.0-1.46","fh2ckdc8dprjje1","1","6111691cde8646b059403cc8","21","10/1999","Single","English","NA","Female","White or Caucasian","No","Undergraduate degree","No, currently not in school","N/A","N/A","N/A","6","1","5","1","3","0.5","stim/N000.jpg","76","76","0.9999999599999999","3","1","4","","4","3","3","1","3","2","3","4","0","3","3","3","5","6","1","5","5","1","2","2","2","4","0","5","5","5","0","5","5","5","1","1","3","0","1","4","5","5","6","5","4","4","5","5","4","1","5","4","5","4","4","4","5","5","2","3","5","3","3","3","3","agree","429","","","","","","","","<div style=""font-size:60px;"">?</div>","76","47","1","0.8"
"image-keyboard-response","128","658645","0.0-11.0-0.47","fh2ckdc8dprjje1","1","6111691cde8646b059403cc8","21","10/1999","Single","English","NA","Female","White or Caucasian","No","Undergraduate degree","No, currently not in school","N/A","N/A","N/A","6","1","5","1","3","0.5","stim/N000.jpg","76","76","0.9999999599999999","3","1","4","","4","3","3","1","3","2","3","4","0","3","3","3","5","6","1","5","5","1","2","2","2","4","0","5","5","5","0","5","5","5","1","1","3","0","1","4","5","5","6","5","4","4","5","5","4","1","5","4","5","4","4","4","5","5","2","3","5","3","3","3","3","agree","null","","","","","","","","stim/H090.jpg","null","","",""
"html-keyboard-response","129","659913","0.0-11.0-1.47","fh2ckdc8dprjje1","1","6111691cde8646b059403cc8","21","10/1999","Single","English","NA","Female","White or Caucasian","No","Undergraduate degree","No, currently not in school","N/A","N/A","N/A","6","1","5","1","3","0.5","stim/N000.jpg","76","76","0.9999999599999999","3","1","4","","4","3","3","1","3","2","3","4","0","3","3","3","5","6","1","5","5","1","2","2","2","4","0","5","5","5","0","5","5","5","1","1","3","0","1","4","5","5","6","5","4","4","5","5","4","1","5","4","5","4","4","4","5","5","2","3","5","3","3","3","3","agree","1266.2999999523163","","","","","","","","<div style=""font-size:60px;"">?</div>","65","48","1","0.8"
"image-keyboard-response","130","660932","0.0-11.0-0.48","fh2ckdc8dprjje1","1","6111691cde8646b059403cc8","21","10/1999","Single","English","NA","Female","White or Caucasian","No","Undergraduate degree","No, currently not in school","N/A","N/A","N/A","6","1","5","1","3","0.5","stim/N000.jpg","76","76","0.9999999599999999","3","1","4","","4","3","3","1","3","2","3","4","0","3","3","3","5","6","1","5","5","1","2","2","2","4","0","5","5","5","0","5","5","5","1","1","3","0","1","4","5","5","6","5","4","4","5","5","4","1","5","4","5","4","4","4","5","5","2","3","5","3","3","3","3","agree","null","","","","","","","","stim/H040.jpg","null","","",""
"html-keyboard-response","131","661492","0.0-11.0-1.48","fh2ckdc8dprjje1","1","6111691cde8646b059403cc8","21","10/1999","Single","English","NA","Female","White or Caucasian","No","Undergraduate degree","No, currently not in school","N/A","N/A","N/A","6","1","5","1","3","0.5","stim/N000.jpg","76","76","0.9999999599999999","3","1","4","","4","3","3","1","3","2","3","4","0","3","3","3","5","6","1","5","5","1","2","2","2","4","0","5","5","5","0","5","5","5","1","1","3","0","1","4","5","5","6","5","4","4","5","5","4","1","5","4","5","4","4","4","5","5","2","3","5","3","3","3","3","agree","558.8000000119209","","","","","","","","<div style=""font-size:60px;"">?</div>","65","49","1","0.8"
"image-keyboard-response","132","662510","0.0-11.0-0.49","fh2ckdc8dprjje1","1","6111691cde8646b059403cc8","21","10/1999","Single","English","NA","Female","White or Caucasian","No","Undergraduate degree","No, currently not in school","N/A","N/A","N/A","6","1","5","1","3","0.5","stim/N000.jpg","76","76","0.9999999599999999","3","1","4","","4","3","3","1","3","2","3","4","0","3","3","3","5","6","1","5","5","1","2","2","2","4","0","5","5","5","0","5","5","5","1","1","3","0","1","4","5","5","6","5","4","4","5","5","4","1","5","4","5","4","4","4","5","5","2","3","5","3","3","3","3","agree","null","","","","","","","","stim/H090.jpg","null","","",""
"html-keyboard-response","133","663370","0.0-11.0-1.49","fh2ckdc8dprjje1","1","6111691cde8646b059403cc8","21","10/1999","Single","English","NA","Female","White or Caucasian","No","Undergraduate degree","No, currently not in school","N/A","N/A","N/A","6","1","5","1","3","0.5","stim/N000.jpg","76","76","0.9999999599999999","3","1","4","","4","3","3","1","3","2","3","4","0","3","3","3","5","6","1","5","5","1","2","2","2","4","0","5","5","5","0","5","5","5","1","1","3","0","1","4","5","5","6","5","4","4","5","5","4","1","5","4","5","4","4","4","5","5","2","3","5","3","3","3","3","agree","858.6000000238419","","","","","","","","<div style=""font-size:60px;"">?</div>","65","50","1","0.8"
"html-keyboard-response","134","665319","0.0-12.0","fh2ckdc8dprjje1","1","6111691cde8646b059403cc8","21","10/1999","Single","English","NA","Female","White or Caucasian","No","Undergraduate degree","No, currently not in school","N/A","N/A","N/A","6","1","5","1","3","0.5","stim/N000.jpg","76","76","0.9999999599999999","3","1","4","","4","3","3","1","3","2","3","4","0","3","3","3","5","6","1","5","5","1","2","2","2","4","0","5","5","5","0","5","5","5","1","1","3","0","1","4","5","5","6","5","4","4","5","5","4","1","5","4","5","4","4","4","5","5","2","3","5","3","3","3","3","agree","1441.199999988079","","","","","","","","<p>Block 2</p><p>Press SPACE to continue.</p>","32","","",""
"image-keyboard-response","135","666847","0.0-13.0-0.0","fh2ckdc8dprjje1","1","6111691cde8646b059403cc8","21","10/1999","Single","English","NA","Female","White or Caucasian","No","Undergraduate degree","No, currently not in school","N/A","N/A","N/A","6","1","5","1","3","0.5","stim/N000.jpg","76","76","0.9999999599999999","3","1","4","","4","3","3","1","3","2","3","4","0","3","3","3","5","6","1","5","5","1","2","2","2","4","0","5","5","5","0","5","5","5","1","1","3","0","1","4","5","5","6","5","4","4","5","5","4","1","5","4","5","4","4","4","5","5","2","3","5","3","3","3","3","agree","null","","","","","","","","stim/T120.jpg","null","","",""
"html-keyboard-response","136","667268","0.0-13.0-1.0","fh2ckdc8dprjje1","1","6111691cde8646b059403cc8","21","10/1999","Single","English","NA","Female","White or Caucasian","No","Undergraduate degree","No, currently not in school","N/A","N/A","N/A","6","1","5","1","3","0.5","stim/N000.jpg","76","76","0.9999999599999999","3","1","4","","4","3","3","1","3","2","3","4","0","3","3","3","5","6","1","5","5","1","2","2","2","4","0","5","5","5","0","5","5","5","1","1","3","0","1","4","5","5","6","5","4","4","5","5","4","1","5","4","5","4","4","4","5","5","2","3","5","3","3","3","3","agree","420.10000002384186","","","","","","","","<div style=""font-size:60px;"">?</div>","65","1","2","0.8"
"image-keyboard-response","137","668295","0.0-13.0-0.1","fh2ckdc8dprjje1","1","6111691cde8646b059403cc8","21","10/1999","Single","English","NA","Female","White or Caucasian","No","Undergraduate degree","No, currently not in school","N/A","N/A","N/A","6","1","5","1","3","0.5","stim/N000.jpg","76","76","0.9999999599999999","3","1","4","","4","3","3","1","3","2","3","4","0","3","3","3","5","6","1","5","5","1","2","2","2","4","0","5","5","5","0","5","5","5","1","1","3","0","1","4","5","5","6","5","4","4","5","5","4","1","5","4","5","4","4","4","5","5","2","3","5","3","3","3","3","agree","null","","","","","","","","stim/H190.jpg","null","","",""
"html-keyboard-response","138","668632","0.0-13.0-1.1","fh2ckdc8dprjje1","1","6111691cde8646b059403cc8","21","10/1999","Single","English","NA","Female","White or Caucasian","No","Undergraduate degree","No, currently not in school","N/A","N/A","N/A","6","1","5","1","3","0.5","stim/N000.jpg","76","76","0.9999999599999999","3","1","4","","4","3","3","1","3","2","3","4","0","3","3","3","5","6","1","5","5","1","2","2","2","4","0","5","5","5","0","5","5","5","1","1","3","0","1","4","5","5","6","5","4","4","5","5","4","1","5","4","5","4","4","4","5","5","2","3","5","3","3","3","3","agree","334.9000000357628","","","","","","","","<div style=""font-size:60px;"">?</div>","76","2","2","0.8"
"image-keyboard-response","139","669641","0.0-13.0-0.2","fh2ckdc8dprjje1","1","6111691cde8646b059403cc8","21","10/1999","Single","English","NA","Female","White or Caucasian","No","Undergraduate degree","No, currently not in school","N/A","N/A","N/A","6","1","5","1","3","0.5","stim/N000.jpg","76","76","0.9999999599999999","3","1","4","","4","3","3","1","3","2","3","4","0","3","3","3","5","6","1","5","5","1","2","2","2","4","0","5","5","5","0","5","5","5","1","1","3","0","1","4","5","5","6","5","4","4","5","5","4","1","5","4","5","4","4","4","5","5","2","3","5","3","3","3","3","agree","null","","","","","","","","stim/H230.jpg","null","","",""
"html-keyboard-response","140","669992","0.0-13.0-1.2","fh2ckdc8dprjje1","1","6111691cde8646b059403cc8","21","10/1999","Single","English","NA","Female","White or Caucasian","No","Undergraduate degree","No, currently not in school","N/A","N/A","N/A","6","1","5","1","3","0.5","stim/N000.jpg","76","76","0.9999999599999999","3","1","4","","4","3","3","1","3","2","3","4","0","3","3","3","5","6","1","5","5","1","2","2","2","4","0","5","5","5","0","5","5","5","1","1","3","0","1","4","5","5","6","5","4","4","5","5","4","1","5","4","5","4","4","4","5","5","2","3","5","3","3","3","3","agree","349.69999998807907","","","","","","","","<div style=""font-size:60px;"">?</div>","76","3","2","0.8"
"image-keyboard-response","141","671003","0.0-13.0-0.3","fh2ckdc8dprjje1","1","6111691cde8646b059403cc8","21","10/1999","Single","English","NA","Female","White or Caucasian","No","Undergraduate degree","No, currently not in school","N/A","N/A","N/A","6","1","5","1","3","0.5","stim/N000.jpg","76","76","0.9999999599999999","3","1","4","","4","3","3","1","3","2","3","4","0","3","3","3","5","6","1","5","5","1","2","2","2","4","0","5","5","5","0","5","5","5","1","1","3","0","1","4","5","5","6","5","4","4","5","5","4","1","5","4","5","4","4","4","5","5","2","3","5","3","3","3","3","agree","null","","","","","","","","stim/H180.jpg","null","","",""
"html-keyboard-response","142","671538","0.0-13.0-1.3","fh2ckdc8dprjje1","1","6111691cde8646b059403cc8","21","10/1999","Single","English","NA","Female","White or Caucasian","No","Undergraduate degree","No, currently not in school","N/A","N/A","N/A","6","1","5","1","3","0.5","stim/N000.jpg","76","76","0.9999999599999999","3","1","4","","4","3","3","1","3","2","3","4","0","3","3","3","5","6","1","5","5","1","2","2","2","4","0","5","5","5","0","5","5","5","1","1","3","0","1","4","5","5","6","5","4","4","5","5","4","1","5","4","5","4","4","4","5","5","2","3","5","3","3","3","3","agree","532.3000000119209","","","","","","","","<div style=""font-size:60px;"">?</div>","76","4","2","0.8"
"image-keyboard-response","143","672557","0.0-13.0-0.4","fh2ckdc8dprjje1","1","6111691cde8646b059403cc8","21","10/1999","Single","English","NA","Female","White or Caucasian","No","Undergraduate degree","No, currently not in school","N/A","N/A","N/A","6","1","5","1","3","0.5","stim/N000.jpg","76","76","0.9999999599999999","3","1","4","","4","3","3","1","3","2","3","4","0","3","3","3","5","6","1","5","5","1","2","2","2","4","0","5","5","5","0","5","5","5","1","1","3","0","1","4","5","5","6","5","4","4","5","5","4","1","5","4","5","4","4","4","5","5","2","3","5","3","3","3","3","agree","null","","","","","","","","stim/T100.jpg","null","","",""
"html-keyboard-response","144","672832","0.0-13.0-1.4","fh2ckdc8dprjje1","1","6111691cde8646b059403cc8","21","10/1999","Single","English","NA","Female","White or Caucasian","No","Undergraduate degree","No, currently not in school","N/A","N/A","N/A","6","1","5","1","3","0.5","stim/N000.jpg","76","76","0.9999999599999999","3","1","4","","4","3","3","1","3","2","3","4","0","3","3","3","5","6","1","5","5","1","2","2","2","4","0","5","5","5","0","5","5","5","1","1","3","0","1","4","5","5","6","5","4","4","5","5","4","1","5","4","5","4","4","4","5","5","2","3","5","3","3","3","3","agree","274","","","","","","","","<div style=""font-size:60px;"">?</div>","65","5","2","0.8"
"image-keyboard-response","145","673856","0.0-13.0-0.5","fh2ckdc8dprjje1","1","6111691cde8646b059403cc8","21","10/1999","Single","English","NA","Female","White or Caucasian","No","Undergraduate degree","No, currently not in school","N/A","N/A","N/A","6","1","5","1","3","0.5","stim/N000.jpg","76","76","0.9999999599999999","3","1","4","","4","3","3","1","3","2","3","4","0","3","3","3","5","6","1","5","5","1","2","2","2","4","0","5","5","5","0","5","5","5","1","1","3","0","1","4","5","5","6","5","4","4","5","5","4","1","5","4","5","4","4","4","5","5","2","3","5","3","3","3","3","agree","null","","","","","","","","stim/H290.jpg","null","","",""
