"trial_type","trial_index","time_elapsed","internal_node_id","subject","condition","ID","age","dob","marital","natlang","olang","gender","ethnicity","mental_check","educ_l","educ_c","mental","mentdrug","mentpos","sesparent","sesstudent","sesladder","educ_hs","educ_ce","s1self","chosenbody","s1selfjudge","s2selfjudge","s2self","sspc_01","sspc_02","pas_01","pas_02","pas_03","pas_04","pas_05","pas_06","pas_07","pas_08","pas_09","pas_10","pas_11","pas_12","pas_13","pas_14","contact_01","contact_02","contact_03","contact_04","contact_05","contact_06","contact_07","contact_08","contact_09","idnd_01","idnd_02","idnd_03","idnd_04","idnd_05","idnd_06","idnd_07","idnd_08","catch_01","adig_01","adig_02","adig_03","plcs_01","plcs_02","plcs_03","plcs_04","plcs_05","plcs_06","plcs_07","plcs_08","plcs_09","plcs_10","plcs_11","plcs_12","catch_02","wwwp_01","wwwp_02","wwwp_03","wwwp_04","wwwp_05","wwwp_06","wwwp_07","wwwp_08","wwwp_09","lsns_fam_1","lsns_fam_2","lsns_fam_3","lsns_fri_1","lsns_fri_2","lsns_fri_3","debrief","rt","url","success","view_history","responses","question_order","final_value","start_value","stimulus","key_press","trial","block","freq"
"pavlovia","0","3","0.0-0.0","y7p1vwtez88kaul","1","6119f273a257113cf7558c74","23","021998","single","english","very basic italian","Female","Asian","No","Undergraduate degree","Yes, but not at a university","N/A","N/A","N/A","4","0","6","1","3","0.299999988","stim/T120.jpg","65","65","0.30000000800000004","3","1","3","","3","1","2","3","2","2","1","4","0","2","0","1","4","6","0","6","6","1","7","1","4","6","0","5","5","5","0","5","5","5","3","3","4","0","3","5","3","4","0","5","3","0","4","5","5","1","5","5","5","5","5","6","6","5","5","3","2","2","4","4","3","agree","","","","","","","","","","","","",""
"external-html","1","47192","0.0-1.0","y7p1vwtez88kaul","1","6119f273a257113cf7558c74","23","021998","single","english","very basic italian","Female","Asian","No","Undergraduate degree","Yes, but not at a university","N/A","N/A","N/A","4","0","6","1","3","0.299999988","stim/T120.jpg","65","65","0.30000000800000004","3","1","3","","3","1","2","3","2","2","1","4","0","2","0","1","4","6","0","6","6","1","7","1","4","6","0","5","5","5","0","5","5","5","3","3","4","0","3","5","3","4","0","5","3","0","4","5","5","1","5","5","5","5","5","6","6","5","5","3","2","2","4","4","3","agree","47013.10000002384","sub/html/consent.html","","","","","","","","","","",""
"fullscreen","2","51242","0.0-2.0","y7p1vwtez88kaul","1","6119f273a257113cf7558c74","23","021998","single","english","very basic italian","Female","Asian","No","Undergraduate degree","Yes, but not at a university","N/A","N/A","N/A","4","0","6","1","3","0.299999988","stim/T120.jpg","65","65","0.30000000800000004","3","1","3","","3","1","2","3","2","2","1","4","0","2","0","1","4","6","0","6","6","1","7","1","4","6","0","5","5","5","0","5","5","5","3","3","4","0","3","5","3","4","0","5","3","0","4","5","5","1","5","5","5","5","5","6","6","5","5","3","2","2","4","4","3","agree","","","true","","","","","","","","","",""
"instructions","3","58928","0.0-3.0","y7p1vwtez88kaul","1","6119f273a257113cf7558c74","23","021998","single","english","very basic italian","Female","Asian","No","Undergraduate degree","Yes, but not at a university","N/A","N/A","N/A","4","0","6","1","3","0.299999988","stim/T120.jpg","65","65","0.30000000800000004","3","1","3","","3","1","2","3","2","2","1","4","0","2","0","1","4","6","0","6","6","1","7","1","4","6","0","5","5","5","0","5","5","5","3","3","4","0","3","5","3","4","0","5","3","0","4","5","5","1","5","5","5","5","5","6","6","5","5","3","2","2","4","4","3","agree","7684.900000035763","","","[{""page_index"":0,""viewing_time"":2925.2000000476837},{""page_index"":1,""viewing_time"":4758.299999952316}]","","","","","","","","",""
"survey-text","4","116167","0.0-4.0-0.0","y7p1vwtez88kaul","1","6119f273a257113cf7558c74","23","021998","single","english","very basic italian","Female","Asian","No","Undergraduate degree","Yes, but not at a university","N/A","N/A","N/A","4","0","6","1","3","0.299999988","stim/T120.jpg","65","65","0.30000000800000004","3","1","3","","3","1","2","3","2","2","1","4","0","2","0","1","4","6","0","6","6","1","7","1","4","6","0","5","5","5","0","5","5","5","3","3","4","0","3","5","3","4","0","5","3","0","4","5","5","1","5","5","5","5","5","6","6","5","5","3","2","2","4","4","3","agree","57233.10000002384","","","","{""ID"":""6119f273a257113cf7558c74"",""age"":""23"",""dob"":""021998"",""marital"":""single"",""natlang"":""english"",""olang"":""very basic italian""}","","","","","","","",""
"survey-multi-choice","5","141544","0.0-4.0-1.0","y7p1vwtez88kaul","1","6119f273a257113cf7558c74","23","021998","single","english","very basic italian","Female","Asian","No","Undergraduate degree","Yes, but not at a university","N/A","N/A","N/A","4","0","6","1","3","0.299999988","stim/T120.jpg","65","65","0.30000000800000004","3","1","3","","3","1","2","3","2","2","1","4","0","2","0","1","4","6","0","6","6","1","7","1","4","6","0","5","5","5","0","5","5","5","3","3","4","0","3","5","3","4","0","5","3","0","4","5","5","1","5","5","5","5","5","6","6","5","5","3","2","2","4","4","3","agree","25370.099999964237","","","","{""gender"":""Female"",""ethnicity"":""Asian"",""mental_check"":""No"",""educ_l"":""Undergraduate degree"",""educ_c"":""Yes, but not at a university""}","[0,1,2,3,4]","","","","","","",""
"survey-text","6","161883","0.0-4.0-2.0","y7p1vwtez88kaul","1","6119f273a257113cf7558c74","23","021998","single","english","very basic italian","Female","Asian","No","Undergraduate degree","Yes, but not at a university","N/A","N/A","N/A","4","0","6","1","3","0.299999988","stim/T120.jpg","65","65","0.30000000800000004","3","1","3","","3","1","2","3","2","2","1","4","0","2","0","1","4","6","0","6","6","1","7","1","4","6","0","5","5","5","0","5","5","5","3","3","4","0","3","5","3","4","0","5","3","0","4","5","5","1","5","5","5","5","5","6","6","5","5","3","2","2","4","4","3","agree","20333","","","","{""mental"":""N/A"",""mentdrug"":""N/A"",""mentpos"":""N/A""}","","","","","","","",""
"survey-likert","7","225080","0.0-4.0-3.0","y7p1vwtez88kaul","1","6119f273a257113cf7558c74","23","021998","single","english","very basic italian","Female","Asian","No","Undergraduate degree","Yes, but not at a university","N/A","N/A","N/A","4","0","6","1","3","0.299999988","stim/T120.jpg","65","65","0.30000000800000004","3","1","3","","3","1","2","3","2","2","1","4","0","2","0","1","4","6","0","6","6","1","7","1","4","6","0","5","5","5","0","5","5","5","3","3","4","0","3","5","3","4","0","5","3","0","4","5","5","1","5","5","5","5","5","6","6","5","5","3","2","2","4","4","3","agree","63194.60000002384","","","","{""sesparent"":4,""sesstudent"":0,""sesladder"":6}","[0,1,2]","","","","","","",""
"survey-likert","8","252762","0.0-4.0-4.0","y7p1vwtez88kaul","1","6119f273a257113cf7558c74","23","021998","single","english","very basic italian","Female","Asian","No","Undergraduate degree","Yes, but not at a university","N/A","N/A","N/A","4","0","6","1","3","0.299999988","stim/T120.jpg","65","65","0.30000000800000004","3","1","3","","3","1","2","3","2","2","1","4","0","2","0","1","4","6","0","6","6","1","7","1","4","6","0","5","5","5","0","5","5","5","3","3","4","0","3","5","3","4","0","5","3","0","4","5","5","1","5","5","5","5","5","6","6","5","5","3","2","2","4","4","3","agree","27676.600000023842","","","","{""educ_hs"":3,""educ_ce"":13}","[0,1]","","","","","","",""
"reconstruction","9","280981","0.0-5.0","y7p1vwtez88kaul","1","6119f273a257113cf7558c74","23","021998","single","english","very basic italian","Female","Asian","No","Undergraduate degree","Yes, but not at a university","N/A","N/A","N/A","4","0","6","1","3","0.299999988","stim/T120.jpg","65","65","0.30000000800000004","3","1","3","","3","1","2","3","2","2","1","4","0","2","0","1","4","6","0","6","6","1","7","1","4","6","0","5","5","5","0","5","5","5","3","3","4","0","3","5","3","4","0","5","3","0","4","5","5","1","5","5","5","5","5","6","6","5","5","3","2","2","4","4","3","agree","28215.600000023842","","","","","","0.299999988","0.5","","","","",""
"image-keyboard-response","10","289511","0.0-6.0","y7p1vwtez88kaul","1","6119f273a257113cf7558c74","23","021998","single","english","very basic italian","Female","Asian","No","Undergraduate degree","Yes, but not at a university","N/A","N/A","N/A","4","0","6","1","3","0.299999988","stim/T120.jpg","65","65","0.30000000800000004","3","1","3","","3","1","2","3","2","2","1","4","0","2","0","1","4","6","0","6","6","1","7","1","4","6","0","5","5","5","0","5","5","5","3","3","4","0","3","5","3","4","0","5","3","0","4","5","5","1","5","5","5","5","5","6","6","5","5","3","2","2","4","4","3","agree","8527.100000023842","","","","","","","","stim/T120.jpg","65","","",""
"instructions","11","370442","0.0-7.0","y7p1vwtez88kaul","1","6119f273a257113cf7558c74","23","021998","single","english","very basic italian","Female","Asian","No","Undergraduate degree","Yes, but not at a university","N/A","N/A","N/A","4","0","6","1","3","0.299999988","stim/T120.jpg","65","65","0.30000000800000004","3","1","3","","3","1","2","3","2","2","1","4","0","2","0","1","4","6","0","6","6","1","7","1","4","6","0","5","5","5","0","5","5","5","3","3","4","0","3","5","3","4","0","5","3","0","4","5","5","1","5","5","5","5","5","6","6","5","5","3","2","2","4","4","3","agree","80935.19999998808","","","[{""page_index"":0,""viewing_time"":2150.899999976158},{""page_index"":1,""viewing_time"":9689.300000011921},{""page_index"":2,""viewing_time"":9814.800000011921},{""page_index"":3,""viewing_time"":39402.69999998808},{""page_index"":4,""viewing_time"":6959.199999988079},{""page_index"":5,""viewing_time"":8665.800000011921},{""page_index"":6,""viewing_time"":4251.699999988079}]","","","","","","","","",""
"image-keyboard-response","12","370949","0.0-8.0-0.0","y7p1vwtez88kaul","1","6119f273a257113cf7558c74","23","021998","single","english","very basic italian","Female","Asian","No","Undergraduate degree","Yes, but not at a university","N/A","N/A","N/A","4","0","6","1","3","0.299999988","stim/T120.jpg","65","65","0.30000000800000004","3","1","3","","3","1","2","3","2","2","1","4","0","2","0","1","4","6","0","6","6","1","7","1","4","6","0","5","5","5","0","5","5","5","3","3","4","0","3","5","3","4","0","5","3","0","4","5","5","1","5","5","5","5","5","6","6","5","5","3","2","2","4","4","3","agree","null","","","","","","","","stim/T010.jpg","null","","",""
"html-keyboard-response","13","375042","0.0-8.0-1.0","y7p1vwtez88kaul","1","6119f273a257113cf7558c74","23","021998","single","english","very basic italian","Female","Asian","No","Undergraduate degree","Yes, but not at a university","N/A","N/A","N/A","4","0","6","1","3","0.299999988","stim/T120.jpg","65","65","0.30000000800000004","3","1","3","","3","1","2","3","2","2","1","4","0","2","0","1","4","6","0","6","6","1","7","1","4","6","0","5","5","5","0","5","5","5","3","3","4","0","3","5","3","4","0","5","3","0","4","5","5","1","5","5","5","5","5","6","6","5","5","3","2","2","4","4","3","agree","4091.199999988079","","","","","","","","<div style=""font-size:60px;"">?</div>","76","1","Practice","0.5"
"image-keyboard-response","14","376046","0.0-8.0-0.1","y7p1vwtez88kaul","1","6119f273a257113cf7558c74","23","021998","single","english","very basic italian","Female","Asian","No","Undergraduate degree","Yes, but not at a university","N/A","N/A","N/A","4","0","6","1","3","0.299999988","stim/T120.jpg","65","65","0.30000000800000004","3","1","3","","3","1","2","3","2","2","1","4","0","2","0","1","4","6","0","6","6","1","7","1","4","6","0","5","5","5","0","5","5","5","3","3","4","0","3","5","3","4","0","5","3","0","4","5","5","1","5","5","5","5","5","6","6","5","5","3","2","2","4","4","3","agree","null","","","","","","","","stim/H150.jpg","null","","",""
"html-keyboard-response","15","376379","0.0-8.0-1.1","y7p1vwtez88kaul","1","6119f273a257113cf7558c74","23","021998","single","english","very basic italian","Female","Asian","No","Undergraduate degree","Yes, but not at a university","N/A","N/A","N/A","4","0","6","1","3","0.299999988","stim/T120.jpg","65","65","0.30000000800000004","3","1","3","","3","1","2","3","2","2","1","4","0","2","0","1","4","6","0","6","6","1","7","1","4","6","0","5","5","5","0","5","5","5","3","3","4","0","3","5","3","4","0","5","3","0","4","5","5","1","5","5","5","5","5","6","6","5","5","3","2","2","4","4","3","agree","331.0999999642372","","","","","","","","<div style=""font-size:60px;"">?</div>","76","2","Practice","0.5"
"image-keyboard-response","16","377388","0.0-8.0-0.2","y7p1vwtez88kaul","1","6119f273a257113cf7558c74","23","021998","single","english","very basic italian","Female","Asian","No","Undergraduate degree","Yes, but not at a university","N/A","N/A","N/A","4","0","6","1","3","0.299999988","stim/T120.jpg","65","65","0.30000000800000004","3","1","3","","3","1","2","3","2","2","1","4","0","2","0","1","4","6","0","6","6","1","7","1","4","6","0","5","5","5","0","5","5","5","3","3","4","0","3","5","3","4","0","5","3","0","4","5","5","1","5","5","5","5","5","6","6","5","5","3","2","2","4","4","3","agree","null","","","","","","","","stim/T030.jpg","null","","",""
"html-keyboard-response","17","378108","0.0-8.0-1.2","y7p1vwtez88kaul","1","6119f273a257113cf7558c74","23","021998","single","english","very basic italian","Female","Asian","No","Undergraduate degree","Yes, but not at a university","N/A","N/A","N/A","4","0","6","1","3","0.299999988","stim/T120.jpg","65","65","0.30000000800000004","3","1","3","","3","1","2","3","2","2","1","4","0","2","0","1","4","6","0","6","6","1","7","1","4","6","0","5","5","5","0","5","5","5","3","3","4","0","3","5","3","4","0","5","3","0","4","5","5","1","5","5","5","5","5","6","6","5","5","3","2","2","4","4","3","agree","718.1999999880791","","","","","","","","<div style=""font-size:60px;"">?</div>","65","3","Practice","0.5"
"image-keyboard-response","18","379114","0.0-8.0-0.3","y7p1vwtez88kaul","1","6119f273a257113cf7558c74","23","021998","single","english","very basic italian","Female","Asian","No","Undergraduate degree","Yes, but not at a university","N/A","N/A","N/A","4","0","6","1","3","0.299999988","stim/T120.jpg","65","65","0.30000000800000004","3","1","3","","3","1","2","3","2","2","1","4","0","2","0","1","4","6","0","6","6","1","7","1","4","6","0","5","5","5","0","5","5","5","3","3","4","0","3","5","3","4","0","5","3","0","4","5","5","1","5","5","5","5","5","6","6","5","5","3","2","2","4","4","3","agree","null","","","","","","","","stim/T160.jpg","null","","",""
"html-keyboard-response","19","379698","0.0-8.0-1.3","y7p1vwtez88kaul","1","6119f273a257113cf7558c74","23","021998","single","english","very basic italian","Female","Asian","No","Undergraduate degree","Yes, but not at a university","N/A","N/A","N/A","4","0","6","1","3","0.299999988","stim/T120.jpg","65","65","0.30000000800000004","3","1","3","","3","1","2","3","2","2","1","4","0","2","0","1","4","6","0","6","6","1","7","1","4","6","0","5","5","5","0","5","5","5","3","3","4","0","3","5","3","4","0","5","3","0","4","5","5","1","5","5","5","5","5","6","6","5","5","3","2","2","4","4","3","agree","582.6999999880791","","","","","","","","<div style=""font-size:60px;"">?</div>","65","4","Practice","0.5"
"image-keyboard-response","20","380701","0.0-8.0-0.4","y7p1vwtez88kaul","1","6119f273a257113cf7558c74","23","021998","single","english","very basic italian","Female","Asian","No","Undergraduate degree","Yes, but not at a university","N/A","N/A","N/A","4","0","6","1","3","0.299999988","stim/T120.jpg","65","65","0.30000000800000004","3","1","3","","3","1","2","3","2","2","1","4","0","2","0","1","4","6","0","6","6","1","7","1","4","6","0","5","5","5","0","5","5","5","3","3","4","0","3","5","3","4","0","5","3","0","4","5","5","1","5","5","5","5","5","6","6","5","5","3","2","2","4","4","3","agree","null","","","","","","","","stim/H170.jpg","null","","",""
"html-keyboard-response","21","381357","0.0-8.0-1.4","y7p1vwtez88kaul","1","6119f273a257113cf7558c74","23","021998","single","english","very basic italian","Female","Asian","No","Undergraduate degree","Yes, but not at a university","N/A","N/A","N/A","4","0","6","1","3","0.299999988","stim/T120.jpg","65","65","0.30000000800000004","3","1","3","","3","1","2","3","2","2","1","4","0","2","0","1","4","6","0","6","6","1","7","1","4","6","0","5","5","5","0","5","5","5","3","3","4","0","3","5","3","4","0","5","3","0","4","5","5","1","5","5","5","5","5","6","6","5","5","3","2","2","4","4","3","agree","654.8000000119209","","","","","","","","<div style=""font-size:60px;"">?</div>","76","5","Practice","0.5"
"image-keyboard-response","22","382359","0.0-8.0-0.5","y7p1vwtez88kaul","1","6119f273a257113cf7558c74","23","021998","single","english","very basic italian","Female","Asian","No","Undergraduate degree","Yes, but not at a university","N/A","N/A","N/A","4","0","6","1","3","0.299999988","stim/T120.jpg","65","65","0.30000000800000004","3","1","3","","3","1","2","3","2","2","1","4","0","2","0","1","4","6","0","6","6","1","7","1","4","6","0","5","5","5","0","5","5","5","3","3","4","0","3","5","3","4","0","5","3","0","4","5","5","1","5","5","5","5","5","6","6","5","5","3","2","2","4","4","3","agree","null","","","","","","","","stim/H200.jpg","null","","",""
"html-keyboard-response","23","382766","0.0-8.0-1.5","y7p1vwtez88kaul","1","6119f273a257113cf7558c74","23","021998","single","english","very basic italian","Female","Asian","No","Undergraduate degree","Yes, but not at a university","N/A","N/A","N/A","4","0","6","1","3","0.299999988","stim/T120.jpg","65","65","0.30000000800000004","3","1","3","","3","1","2","3","2","2","1","4","0","2","0","1","4","6","0","6","6","1","7","1","4","6","0","5","5","5","0","5","5","5","3","3","4","0","3","5","3","4","0","5","3","0","4","5","5","1","5","5","5","5","5","6","6","5","5","3","2","2","4","4","3","agree","405","","","","","","","","<div style=""font-size:60px;"">?</div>","76","6","Practice","0.5"
"image-keyboard-response","24","383771","0.0-8.0-0.6","y7p1vwtez88kaul","1","6119f273a257113cf7558c74","23","021998","single","english","very basic italian","Female","Asian","No","Undergraduate degree","Yes, but not at a university","N/A","N/A","N/A","4","0","6","1","3","0.299999988","stim/T120.jpg","65","65","0.30000000800000004","3","1","3","","3","1","2","3","2","2","1","4","0","2","0","1","4","6","0","6","6","1","7","1","4","6","0","5","5","5","0","5","5","5","3","3","4","0","3","5","3","4","0","5","3","0","4","5","5","1","5","5","5","5","5","6","6","5","5","3","2","2","4","4","3","agree","null","","","","","","","","stim/T120.jpg","null","","",""
"html-keyboard-response","25","384416","0.0-8.0-1.6","y7p1vwtez88kaul","1","6119f273a257113cf7558c74","23","021998","single","english","very basic italian","Female","Asian","No","Undergraduate degree","Yes, but not at a university","N/A","N/A","N/A","4","0","6","1","3","0.299999988","stim/T120.jpg","65","65","0.30000000800000004","3","1","3","","3","1","2","3","2","2","1","4","0","2","0","1","4","6","0","6","6","1","7","1","4","6","0","5","5","5","0","5","5","5","3","3","4","0","3","5","3","4","0","5","3","0","4","5","5","1","5","5","5","5","5","6","6","5","5","3","2","2","4","4","3","agree","644","","","","","","","","<div style=""font-size:60px;"">?</div>","65","7","Practice","0.5"
"image-keyboard-response","26","385418","0.0-8.0-0.7","y7p1vwtez88kaul","1","6119f273a257113cf7558c74","23","021998","single","english","very basic italian","Female","Asian","No","Undergraduate degree","Yes, but not at a university","N/A","N/A","N/A","4","0","6","1","3","0.299999988","stim/T120.jpg","65","65","0.30000000800000004","3","1","3","","3","1","2","3","2","2","1","4","0","2","0","1","4","6","0","6","6","1","7","1","4","6","0","5","5","5","0","5","5","5","3","3","4","0","3","5","3","4","0","5","3","0","4","5","5","1","5","5","5","5","5","6","6","5","5","3","2","2","4","4","3","agree","null","","","","","","","","stim/H140.jpg","null","","",""
"html-keyboard-response","27","386152","0.0-8.0-1.7","y7p1vwtez88kaul","1","6119f273a257113cf7558c74","23","021998","single","english","very basic italian","Female","Asian","No","Undergraduate degree","Yes, but not at a university","N/A","N/A","N/A","4","0","6","1","3","0.299999988","stim/T120.jpg","65","65","0.30000000800000004","3","1","3","","3","1","2","3","2","2","1","4","0","2","0","1","4","6","0","6","6","1","7","1","4","6","0","5","5","5","0","5","5","5","3","3","4","0","3","5","3","4","0","5","3","0","4","5","5","1","5","5","5","5","5","6","6","5","5","3","2","2","4","4","3","agree","732.2999999523163","","","","","","","","<div style=""font-size:60px;"">?</div>","76","8","Practice","0.5"
"image-keyboard-response","28","387157","0.0-8.0-0.8","y7p1vwtez88kaul","1","6119f273a257113cf7558c74","23","021998","single","english","very basic italian","Female","Asian","No","Undergraduate degree","Yes, but not at a university","N/A","N/A","N/A","4","0","6","1","3","0.299999988","stim/T120.jpg","65","65","0.30000000800000004","3","1","3","","3","1","2","3","2","2","1","4","0","2","0","1","4","6","0","6","6","1","7","1","4","6","0","5","5","5","0","5","5","5","3","3","4","0","3","5","3","4","0","5","3","0","4","5","5","1","5","5","5","5","5","6","6","5","5","3","2","2","4","4","3","agree","null","","","","","","","","stim/H200.jpg","null","","",""
"html-keyboard-response","29","387346","0.0-8.0-1.8","y7p1vwtez88kaul","1","6119f273a257113cf7558c74","23","021998","single","english","very basic italian","Female","Asian","No","Undergraduate degree","Yes, but not at a university","N/A","N/A","N/A","4","0","6","1","3","0.299999988","stim/T120.jpg","65","65","0.30000000800000004","3","1","3","","3","1","2","3","2","2","1","4","0","2","0","1","4","6","0","6","6","1","7","1","4","6","0","5","5","5","0","5","5","5","3","3","4","0","3","5","3","4","0","5","3","0","4","5","5","1","5","5","5","5","5","6","6","5","5","3","2","2","4","4","3","agree","188.30000001192093","","","","","","","","<div style=""font-size:60px;"">?</div>","76","9","Practice","0.5"
"image-keyboard-response","30","388352","0.0-8.0-0.9","y7p1vwtez88kaul","1","6119f273a257113cf7558c74","23","021998","single","english","very basic italian","Female","Asian","No","Undergraduate degree","Yes, but not at a university","N/A","N/A","N/A","4","0","6","1","3","0.299999988","stim/T120.jpg","65","65","0.30000000800000004","3","1","3","","3","1","2","3","2","2","1","4","0","2","0","1","4","6","0","6","6","1","7","1","4","6","0","5","5","5","0","5","5","5","3","3","4","0","3","5","3","4","0","5","3","0","4","5","5","1","5","5","5","5","5","6","6","5","5","3","2","2","4","4","3","agree","null","","","","","","","","stim/T120.jpg","null","","",""
"html-keyboard-response","31","388733","0.0-8.0-1.9","y7p1vwtez88kaul","1","6119f273a257113cf7558c74","23","021998","single","english","very basic italian","Female","Asian","No","Undergraduate degree","Yes, but not at a university","N/A","N/A","N/A","4","0","6","1","3","0.299999988","stim/T120.jpg","65","65","0.30000000800000004","3","1","3","","3","1","2","3","2","2","1","4","0","2","0","1","4","6","0","6","6","1","7","1","4","6","0","5","5","5","0","5","5","5","3","3","4","0","3","5","3","4","0","5","3","0","4","5","5","1","5","5","5","5","5","6","6","5","5","3","2","2","4","4","3","agree","380","","","","","","","","<div style=""font-size:60px;"">?</div>","65","10","Practice","0.5"
"html-keyboard-response","32","395449","0.0-9.0","y7p1vwtez88kaul","1","6119f273a257113cf7558c74","23","021998","single","english","very basic italian","Female","Asian","No","Undergraduate degree","Yes, but not at a university","N/A","N/A","N/A","4","0","6","1","3","0.299999988","stim/T120.jpg","65","65","0.30000000800000004","3","1","3","","3","1","2","3","2","2","1","4","0","2","0","1","4","6","0","6","6","1","7","1","4","6","0","5","5","5","0","5","5","5","3","3","4","0","3","5","3","4","0","5","3","0","4","5","5","1","5","5","5","5","5","6","6","5","5","3","2","2","4","4","3","agree","6211.100000023842","","","","","","","","<p>You have now completed the practice series.</p><p>If you have any questions, please reload this page and read the instructions again.</p><p>Otherwise, you're ready to begin the study!</p><p><strong>REMEMBER</strong>: Press <b>L </b>when you think the face is of Western origin, and <b>A </b>if not. </p><p>Press SPACE when you're ready to start!</p>","32","","",""
"html-keyboard-response","33","396913","0.0-10.0","y7p1vwtez88kaul","1","6119f273a257113cf7558c74","23","021998","single","english","very basic italian","Female","Asian","No","Undergraduate degree","Yes, but not at a university","N/A","N/A","N/A","4","0","6","1","3","0.299999988","stim/T120.jpg","65","65","0.30000000800000004","3","1","3","","3","1","2","3","2","2","1","4","0","2","0","1","4","6","0","6","6","1","7","1","4","6","0","5","5","5","0","5","5","5","3","3","4","0","3","5","3","4","0","5","3","0","4","5","5","1","5","5","5","5","5","6","6","5","5","3","2","2","4","4","3","agree","963","","","","","","","","<p>Block 1</p><p>Press SPACE to continue.</p>","32","","",""
"image-keyboard-response","34","398425","0.0-11.0-0.0","y7p1vwtez88kaul","1","6119f273a257113cf7558c74","23","021998","single","english","very basic italian","Female","Asian","No","Undergraduate degree","Yes, but not at a university","N/A","N/A","N/A","4","0","6","1","3","0.299999988","stim/T120.jpg","65","65","0.30000000800000004","3","1","3","","3","1","2","3","2","2","1","4","0","2","0","1","4","6","0","6","6","1","7","1","4","6","0","5","5","5","0","5","5","5","3","3","4","0","3","5","3","4","0","5","3","0","4","5","5","1","5","5","5","5","5","6","6","5","5","3","2","2","4","4","3","agree","null","","","","","","","","stim/H050.jpg","null","","",""
"html-keyboard-response","35","399322","0.0-11.0-1.0","y7p1vwtez88kaul","1","6119f273a257113cf7558c74","23","021998","single","english","very basic italian","Female","Asian","No","Undergraduate degree","Yes, but not at a university","N/A","N/A","N/A","4","0","6","1","3","0.299999988","stim/T120.jpg","65","65","0.30000000800000004","3","1","3","","3","1","2","3","2","2","1","4","0","2","0","1","4","6","0","6","6","1","7","1","4","6","0","5","5","5","0","5","5","5","3","3","4","0","3","5","3","4","0","5","3","0","4","5","5","1","5","5","5","5","5","6","6","5","5","3","2","2","4","4","3","agree","896.2999999523163","","","","","","","","<div style=""font-size:60px;"">?</div>","65","1","1","0.8"
"image-keyboard-response","36","400326","0.0-11.0-0.1","y7p1vwtez88kaul","1","6119f273a257113cf7558c74","23","021998","single","english","very basic italian","Female","Asian","No","Undergraduate degree","Yes, but not at a university","N/A","N/A","N/A","4","0","6","1","3","0.299999988","stim/T120.jpg","65","65","0.30000000800000004","3","1","3","","3","1","2","3","2","2","1","4","0","2","0","1","4","6","0","6","6","1","7","1","4","6","0","5","5","5","0","5","5","5","3","3","4","0","3","5","3","4","0","5","3","0","4","5","5","1","5","5","5","5","5","6","6","5","5","3","2","2","4","4","3","agree","null","","","","","","","","stim/H090.jpg","null","","",""
"html-keyboard-response","37","400491","0.0-11.0-1.1","y7p1vwtez88kaul","1","6119f273a257113cf7558c74","23","021998","single","english","very basic italian","Female","Asian","No","Undergraduate degree","Yes, but not at a university","N/A","N/A","N/A","4","0","6","1","3","0.299999988","stim/T120.jpg","65","65","0.30000000800000004","3","1","3","","3","1","2","3","2","2","1","4","0","2","0","1","4","6","0","6","6","1","7","1","4","6","0","5","5","5","0","5","5","5","3","3","4","0","3","5","3","4","0","5","3","0","4","5","5","1","5","5","5","5","5","6","6","5","5","3","2","2","4","4","3","agree","164.70000004768372","","","","","","","","<div style=""font-size:60px;"">?</div>","76","2","1","0.8"
"image-keyboard-response","38","401498","0.0-11.0-0.2","y7p1vwtez88kaul","1","6119f273a257113cf7558c74","23","021998","single","english","very basic italian","Female","Asian","No","Undergraduate degree","Yes, but not at a university","N/A","N/A","N/A","4","0","6","1","3","0.299999988","stim/T120.jpg","65","65","0.30000000800000004","3","1","3","","3","1","2","3","2","2","1","4","0","2","0","1","4","6","0","6","6","1","7","1","4","6","0","5","5","5","0","5","5","5","3","3","4","0","3","5","3","4","0","5","3","0","4","5","5","1","5","5","5","5","5","6","6","5","5","3","2","2","4","4","3","agree","null","","","","","","","","stim/H020.jpg","null","","",""
"html-keyboard-response","39","401607","0.0-11.0-1.2","y7p1vwtez88kaul","1","6119f273a257113cf7558c74","23","021998","single","english","very basic italian","Female","Asian","No","Undergraduate degree","Yes, but not at a university","N/A","N/A","N/A","4","0","6","1","3","0.299999988","stim/T120.jpg","65","65","0.30000000800000004","3","1","3","","3","1","2","3","2","2","1","4","0","2","0","1","4","6","0","6","6","1","7","1","4","6","0","5","5","5","0","5","5","5","3","3","4","0","3","5","3","4","0","5","3","0","4","5","5","1","5","5","5","5","5","6","6","5","5","3","2","2","4","4","3","agree","108.60000002384186","","","","","","","","<div style=""font-size:60px;"">?</div>","76","3","1","0.8"
"image-keyboard-response","40","402615","0.0-11.0-0.3","y7p1vwtez88kaul","1","6119f273a257113cf7558c74","23","021998","single","english","very basic italian","Female","Asian","No","Undergraduate degree","Yes, but not at a university","N/A","N/A","N/A","4","0","6","1","3","0.299999988","stim/T120.jpg","65","65","0.30000000800000004","3","1","3","","3","1","2","3","2","2","1","4","0","2","0","1","4","6","0","6","6","1","7","1","4","6","0","5","5","5","0","5","5","5","3","3","4","0","3","5","3","4","0","5","3","0","4","5","5","1","5","5","5","5","5","6","6","5","5","3","2","2","4","4","3","agree","null","","","","","","","","stim/H160.jpg","null","","",""
"html-keyboard-response","41","402667","0.0-11.0-1.3","y7p1vwtez88kaul","1","6119f273a257113cf7558c74","23","021998","single","english","very basic italian","Female","Asian","No","Undergraduate degree","Yes, but not at a university","N/A","N/A","N/A","4","0","6","1","3","0.299999988","stim/T120.jpg","65","65","0.30000000800000004","3","1","3","","3","1","2","3","2","2","1","4","0","2","0","1","4","6","0","6","6","1","7","1","4","6","0","5","5","5","0","5","5","5","3","3","4","0","3","5","3","4","0","5","3","0","4","5","5","1","5","5","5","5","5","6","6","5","5","3","2","2","4","4","3","agree","51","","","","","","","","<div style=""font-size:60px;"">?</div>","76","4","1","0.8"
"image-keyboard-response","42","403672","0.0-11.0-0.4","y7p1vwtez88kaul","1","6119f273a257113cf7558c74","23","021998","single","english","very basic italian","Female","Asian","No","Undergraduate degree","Yes, but not at a university","N/A","N/A","N/A","4","0","6","1","3","0.299999988","stim/T120.jpg","65","65","0.30000000800000004","3","1","3","","3","1","2","3","2","2","1","4","0","2","0","1","4","6","0","6","6","1","7","1","4","6","0","5","5","5","0","5","5","5","3","3","4","0","3","5","3","4","0","5","3","0","4","5","5","1","5","5","5","5","5","6","6","5","5","3","2","2","4","4","3","agree","null","","","","","","","","stim/H070.jpg","null","","",""
"html-keyboard-response","43","403748","0.0-11.0-1.4","y7p1vwtez88kaul","1","6119f273a257113cf7558c74","23","021998","single","english","very basic italian","Female","Asian","No","Undergraduate degree","Yes, but not at a university","N/A","N/A","N/A","4","0","6","1","3","0.299999988","stim/T120.jpg","65","65","0.30000000800000004","3","1","3","","3","1","2","3","2","2","1","4","0","2","0","1","4","6","0","6","6","1","7","1","4","6","0","5","5","5","0","5","5","5","3","3","4","0","3","5","3","4","0","5","3","0","4","5","5","1","5","5","5","5","5","6","6","5","5","3","2","2","4","4","3","agree","74.79999995231628","","","","","","","","<div style=""font-size:60px;"">?</div>","76","5","1","0.8"
"image-keyboard-response","44","404750","0.0-11.0-0.5","y7p1vwtez88kaul","1","6119f273a257113cf7558c74","23","021998","single","english","very basic italian","Female","Asian","No","Undergraduate degree","Yes, but not at a university","N/A","N/A","N/A","4","0","6","1","3","0.299999988","stim/T120.jpg","65","65","0.30000000800000004","3","1","3","","3","1","2","3","2","2","1","4","0","2","0","1","4","6","0","6","6","1","7","1","4","6","0","5","5","5","0","5","5","5","3","3","4","0","3","5","3","4","0","5","3","0","4","5","5","1","5","5","5","5","5","6","6","5","5","3","2","2","4","4","3","agree","null","","","","","","","","stim/H080.jpg","null","","",""
"html-keyboard-response","45","404778","0.0-11.0-1.5","y7p1vwtez88kaul","1","6119f273a257113cf7558c74","23","021998","single","english","very basic italian","Female","Asian","No","Undergraduate degree","Yes, but not at a university","N/A","N/A","N/A","4","0","6","1","3","0.299999988","stim/T120.jpg","65","65","0.30000000800000004","3","1","3","","3","1","2","3","2","2","1","4","0","2","0","1","4","6","0","6","6","1","7","1","4","6","0","5","5","5","0","5","5","5","3","3","4","0","3","5","3","4","0","5","3","0","4","5","5","1","5","5","5","5","5","6","6","5","5","3","2","2","4","4","3","agree","26.600000023841858","","","","","","","","<div style=""font-size:60px;"">?</div>","76","6","1","0.8"
"image-keyboard-response","46","405783","0.0-11.0-0.6","y7p1vwtez88kaul","1","6119f273a257113cf7558c74","23","021998","single","english","very basic italian","Female","Asian","No","Undergraduate degree","Yes, but not at a university","N/A","N/A","N/A","4","0","6","1","3","0.299999988","stim/T120.jpg","65","65","0.30000000800000004","3","1","3","","3","1","2","3","2","2","1","4","0","2","0","1","4","6","0","6","6","1","7","1","4","6","0","5","5","5","0","5","5","5","3","3","4","0","3","5","3","4","0","5","3","0","4","5","5","1","5","5","5","5","5","6","6","5","5","3","2","2","4","4","3","agree","null","","","","","","","","stim/H240.jpg","null","","",""
"html-keyboard-response","47","405895","0.0-11.0-1.6","y7p1vwtez88kaul","1","6119f273a257113cf7558c74","23","021998","single","english","very basic italian","Female","Asian","No","Undergraduate degree","Yes, but not at a university","N/A","N/A","N/A","4","0","6","1","3","0.299999988","stim/T120.jpg","65","65","0.30000000800000004","3","1","3","","3","1","2","3","2","2","1","4","0","2","0","1","4","6","0","6","6","1","7","1","4","6","0","5","5","5","0","5","5","5","3","3","4","0","3","5","3","4","0","5","3","0","4","5","5","1","5","5","5","5","5","6","6","5","5","3","2","2","4","4","3","agree","110.59999996423721","","","","","","","","<div style=""font-size:60px;"">?</div>","76","7","1","0.8"
"image-keyboard-response","48","406904","0.0-11.0-0.7","y7p1vwtez88kaul","1","6119f273a257113cf7558c74","23","021998","single","english","very basic italian","Female","Asian","No","Undergraduate degree","Yes, but not at a university","N/A","N/A","N/A","4","0","6","1","3","0.299999988","stim/T120.jpg","65","65","0.30000000800000004","3","1","3","","3","1","2","3","2","2","1","4","0","2","0","1","4","6","0","6","6","1","7","1","4","6","0","5","5","5","0","5","5","5","3","3","4","0","3","5","3","4","0","5","3","0","4","5","5","1","5","5","5","5","5","6","6","5","5","3","2","2","4","4","3","agree","null","","","","","","","","stim/T030.jpg","null","","",""
"html-keyboard-response","49","407114","0.0-11.0-1.7","y7p1vwtez88kaul","1","6119f273a257113cf7558c74","23","021998","single","english","very basic italian","Female","Asian","No","Undergraduate degree","Yes, but not at a university","N/A","N/A","N/A","4","0","6","1","3","0.299999988","stim/T120.jpg","65","65","0.30000000800000004","3","1","3","","3","1","2","3","2","2","1","4","0","2","0","1","4","6","0","6","6","1","7","1","4","6","0","5","5","5","0","5","5","5","3","3","4","0","3","5","3","4","0","5","3","0","4","5","5","1","5","5","5","5","5","6","6","5","5","3","2","2","4","4","3","agree","208.19999998807907","","","","","","","","<div style=""font-size:60px;"">?</div>","65","8","1","0.8"
"image-keyboard-response","50","408120","0.0-11.0-0.8","y7p1vwtez88kaul","1","6119f273a257113cf7558c74","23","021998","single","english","very basic italian","Female","Asian","No","Undergraduate degree","Yes, but not at a university","N/A","N/A","N/A","4","0","6","1","3","0.299999988","stim/T120.jpg","65","65","0.30000000800000004","3","1","3","","3","1","2","3","2","2","1","4","0","2","0","1","4","6","0","6","6","1","7","1","4","6","0","5","5","5","0","5","5","5","3","3","4","0","3","5","3","4","0","5","3","0","4","5","5","1","5","5","5","5","5","6","6","5","5","3","2","2","4","4","3","agree","null","","","","","","","","stim/H070.jpg","null","","",""
"html-keyboard-response","51","408203","0.0-11.0-1.8","y7p1vwtez88kaul","1","6119f273a257113cf7558c74","23","021998","single","english","very basic italian","Female","Asian","No","Undergraduate degree","Yes, but not at a university","N/A","N/A","N/A","4","0","6","1","3","0.299999988","stim/T120.jpg","65","65","0.30000000800000004","3","1","3","","3","1","2","3","2","2","1","4","0","2","0","1","4","6","0","6","6","1","7","1","4","6","0","5","5","5","0","5","5","5","3","3","4","0","3","5","3","4","0","5","3","0","4","5","5","1","5","5","5","5","5","6","6","5","5","3","2","2","4","4","3","agree","81.10000002384186","","","","","","","","<div style=""font-size:60px;"">?</div>","65","9","1","0.8"
"image-keyboard-response","52","409213","0.0-11.0-0.9","y7p1vwtez88kaul","1","6119f273a257113cf7558c74","23","021998","single","english","very basic italian","Female","Asian","No","Undergraduate degree","Yes, but not at a university","N/A","N/A","N/A","4","0","6","1","3","0.299999988","stim/T120.jpg","65","65","0.30000000800000004","3","1","3","","3","1","2","3","2","2","1","4","0","2","0","1","4","6","0","6","6","1","7","1","4","6","0","5","5","5","0","5","5","5","3","3","4","0","3","5","3","4","0","5","3","0","4","5","5","1","5","5","5","5","5","6","6","5","5","3","2","2","4","4","3","agree","null","","","","","","","","stim/H050.jpg","null","","",""
"html-keyboard-response","53","409255","0.0-11.0-1.9","y7p1vwtez88kaul","1","6119f273a257113cf7558c74","23","021998","single","english","very basic italian","Female","Asian","No","Undergraduate degree","Yes, but not at a university","N/A","N/A","N/A","4","0","6","1","3","0.299999988","stim/T120.jpg","65","65","0.30000000800000004","3","1","3","","3","1","2","3","2","2","1","4","0","2","0","1","4","6","0","6","6","1","7","1","4","6","0","5","5","5","0","5","5","5","3","3","4","0","3","5","3","4","0","5","3","0","4","5","5","1","5","5","5","5","5","6","6","5","5","3","2","2","4","4","3","agree","40.5","","","","","","","","<div style=""font-size:60px;"">?</div>","65","10","1","0.8"
"image-keyboard-response","54","410263","0.0-11.0-0.10","y7p1vwtez88kaul","1","6119f273a257113cf7558c74","23","021998","single","english","very basic italian","Female","Asian","No","Undergraduate degree","Yes, but not at a university","N/A","N/A","N/A","4","0","6","1","3","0.299999988","stim/T120.jpg","65","65","0.30000000800000004","3","1","3","","3","1","2","3","2","2","1","4","0","2","0","1","4","6","0","6","6","1","7","1","4","6","0","5","5","5","0","5","5","5","3","3","4","0","3","5","3","4","0","5","3","0","4","5","5","1","5","5","5","5","5","6","6","5","5","3","2","2","4","4","3","agree","null","","","","","","","","stim/H290.jpg","null","","",""
"html-keyboard-response","55","410300","0.0-11.0-1.10","y7p1vwtez88kaul","1","6119f273a257113cf7558c74","23","021998","single","english","very basic italian","Female","Asian","No","Undergraduate degree","Yes, but not at a university","N/A","N/A","N/A","4","0","6","1","3","0.299999988","stim/T120.jpg","65","65","0.30000000800000004","3","1","3","","3","1","2","3","2","2","1","4","0","2","0","1","4","6","0","6","6","1","7","1","4","6","0","5","5","5","0","5","5","5","3","3","4","0","3","5","3","4","0","5","3","0","4","5","5","1","5","5","5","5","5","6","6","5","5","3","2","2","4","4","3","agree","35.90000003576279","","","","","","","","<div style=""font-size:60px;"">?</div>","76","11","1","0.8"
"image-keyboard-response","56","411306","0.0-11.0-0.11","y7p1vwtez88kaul","1","6119f273a257113cf7558c74","23","021998","single","english","very basic italian","Female","Asian","No","Undergraduate degree","Yes, but not at a university","N/A","N/A","N/A","4","0","6","1","3","0.299999988","stim/T120.jpg","65","65","0.30000000800000004","3","1","3","","3","1","2","3","2","2","1","4","0","2","0","1","4","6","0","6","6","1","7","1","4","6","0","5","5","5","0","5","5","5","3","3","4","0","3","5","3","4","0","5","3","0","4","5","5","1","5","5","5","5","5","6","6","5","5","3","2","2","4","4","3","agree","null","","","","","","","","stim/T030.jpg","null","","",""
"html-keyboard-response","57","411376","0.0-11.0-1.11","y7p1vwtez88kaul","1","6119f273a257113cf7558c74","23","021998","single","english","very basic italian","Female","Asian","No","Undergraduate degree","Yes, but not at a university","N/A","N/A","N/A","4","0","6","1","3","0.299999988","stim/T120.jpg","65","65","0.30000000800000004","3","1","3","","3","1","2","3","2","2","1","4","0","2","0","1","4","6","0","6","6","1","7","1","4","6","0","5","5","5","0","5","5","5","3","3","4","0","3","5","3","4","0","5","3","0","4","5","5","1","5","5","5","5","5","6","6","5","5","3","2","2","4","4","3","agree","69.19999998807907","","","","","","","","<div style=""font-size:60px;"">?</div>","65","12","1","0.8"
"image-keyboard-response","58","412389","0.0-11.0-0.12","y7p1vwtez88kaul","1","6119f273a257113cf7558c74","23","021998","single","english","very basic italian","Female","Asian","No","Undergraduate degree","Yes, but not at a university","N/A","N/A","N/A","4","0","6","1","3","0.299999988","stim/T120.jpg","65","65","0.30000000800000004","3","1","3","","3","1","2","3","2","2","1","4","0","2","0","1","4","6","0","6","6","1","7","1","4","6","0","5","5","5","0","5","5","5","3","3","4","0","3","5","3","4","0","5","3","0","4","5","5","1","5","5","5","5","5","6","6","5","5","3","2","2","4","4","3","agree","null","","","","","","","","stim/T180.jpg","null","","",""
"html-keyboard-response","59","416444","0.0-11.0-1.12","y7p1vwtez88kaul","1","6119f273a257113cf7558c74","23","021998","single","english","very basic italian","Female","Asian","No","Undergraduate degree","Yes, but not at a university","N/A","N/A","N/A","4","0","6","1","3","0.299999988","stim/T120.jpg","65","65","0.30000000800000004","3","1","3","","3","1","2","3","2","2","1","4","0","2","0","1","4","6","0","6","6","1","7","1","4","6","0","5","5","5","0","5","5","5","3","3","4","0","3","5","3","4","0","5","3","0","4","5","5","1","5","5","5","5","5","6","6","5","5","3","2","2","4","4","3","agree","4054.2999999523163","","","","","","","","<div style=""font-size:60px;"">?</div>","65","13","1","0.8"
"image-keyboard-response","60","417448","0.0-11.0-0.13","y7p1vwtez88kaul","1","6119f273a257113cf7558c74","23","021998","single","english","very basic italian","Female","Asian","No","Undergraduate degree","Yes, but not at a university","N/A","N/A","N/A","4","0","6","1","3","0.299999988","stim/T120.jpg","65","65","0.30000000800000004","3","1","3","","3","1","2","3","2","2","1","4","0","2","0","1","4","6","0","6","6","1","7","1","4","6","0","5","5","5","0","5","5","5","3","3","4","0","3","5","3","4","0","5","3","0","4","5","5","1","5","5","5","5","5","6","6","5","5","3","2","2","4","4","3","agree","null","","","","","","","","stim/T130.jpg","null","","",""
"html-keyboard-response","61","417545","0.0-11.0-1.13","y7p1vwtez88kaul","1","6119f273a257113cf7558c74","23","021998","single","english","very basic italian","Female","Asian","No","Undergraduate degree","Yes, but not at a university","N/A","N/A","N/A","4","0","6","1","3","0.299999988","stim/T120.jpg","65","65","0.30000000800000004","3","1","3","","3","1","2","3","2","2","1","4","0","2","0","1","4","6","0","6","6","1","7","1","4","6","0","5","5","5","0","5","5","5","3","3","4","0","3","5","3","4","0","5","3","0","4","5","5","1","5","5","5","5","5","6","6","5","5","3","2","2","4","4","3","agree","95.89999997615814","","","","","","","","<div style=""font-size:60px;"">?</div>","65","14","1","0.8"
"image-keyboard-response","62","418553","0.0-11.0-0.14","y7p1vwtez88kaul","1","6119f273a257113cf7558c74","23","021998","single","english","very basic italian","Female","Asian","No","Undergraduate degree","Yes, but not at a university","N/A","N/A","N/A","4","0","6","1","3","0.299999988","stim/T120.jpg","65","65","0.30000000800000004","3","1","3","","3","1","2","3","2","2","1","4","0","2","0","1","4","6","0","6","6","1","7","1","4","6","0","5","5","5","0","5","5","5","3","3","4","0","3","5","3","4","0","5","3","0","4","5","5","1","5","5","5","5","5","6","6","5","5","3","2","2","4","4","3","agree","null","","","","","","","","stim/H080.jpg","null","","",""
"html-keyboard-response","63","418716","0.0-11.0-1.14","y7p1vwtez88kaul","1","6119f273a257113cf7558c74","23","021998","single","english","very basic italian","Female","Asian","No","Undergraduate degree","Yes, but not at a university","N/A","N/A","N/A","4","0","6","1","3","0.299999988","stim/T120.jpg","65","65","0.30000000800000004","3","1","3","","3","1","2","3","2","2","1","4","0","2","0","1","4","6","0","6","6","1","7","1","4","6","0","5","5","5","0","5","5","5","3","3","4","0","3","5","3","4","0","5","3","0","4","5","5","1","5","5","5","5","5","6","6","5","5","3","2","2","4","4","3","agree","161.89999997615814","","","","","","","","<div style=""font-size:60px;"">?</div>","76","15","1","0.8"
"image-keyboard-response","64","419722","0.0-11.0-0.15","y7p1vwtez88kaul","1","6119f273a257113cf7558c74","23","021998","single","english","very basic italian","Female","Asian","No","Undergraduate degree","Yes, but not at a university","N/A","N/A","N/A","4","0","6","1","3","0.299999988","stim/T120.jpg","65","65","0.30000000800000004","3","1","3","","3","1","2","3","2","2","1","4","0","2","0","1","4","6","0","6","6","1","7","1","4","6","0","5","5","5","0","5","5","5","3","3","4","0","3","5","3","4","0","5","3","0","4","5","5","1","5","5","5","5","5","6","6","5","5","3","2","2","4","4","3","agree","null","","","","","","","","stim/H220.jpg","null","","",""
"html-keyboard-response","65","419892","0.0-11.0-1.15","y7p1vwtez88kaul","1","6119f273a257113cf7558c74","23","021998","single","english","very basic italian","Female","Asian","No","Undergraduate degree","Yes, but not at a university","N/A","N/A","N/A","4","0","6","1","3","0.299999988","stim/T120.jpg","65","65","0.30000000800000004","3","1","3","","3","1","2","3","2","2","1","4","0","2","0","1","4","6","0","6","6","1","7","1","4","6","0","5","5","5","0","5","5","5","3","3","4","0","3","5","3","4","0","5","3","0","4","5","5","1","5","5","5","5","5","6","6","5","5","3","2","2","4","4","3","agree","168.10000002384186","","","","","","","","<div style=""font-size:60px;"">?</div>","76","16","1","0.8"
"image-keyboard-response","66","420900","0.0-11.0-0.16","y7p1vwtez88kaul","1","6119f273a257113cf7558c74","23","021998","single","english","very basic italian","Female","Asian","No","Undergraduate degree","Yes, but not at a university","N/A","N/A","N/A","4","0","6","1","3","0.299999988","stim/T120.jpg","65","65","0.30000000800000004","3","1","3","","3","1","2","3","2","2","1","4","0","2","0","1","4","6","0","6","6","1","7","1","4","6","0","5","5","5","0","5","5","5","3","3","4","0","3","5","3","4","0","5","3","0","4","5","5","1","5","5","5","5","5","6","6","5","5","3","2","2","4","4","3","agree","null","","","","","","","","stim/H060.jpg","null","","",""
"html-keyboard-response","67","421452","0.0-11.0-1.16","y7p1vwtez88kaul","1","6119f273a257113cf7558c74","23","021998","single","english","very basic italian","Female","Asian","No","Undergraduate degree","Yes, but not at a university","N/A","N/A","N/A","4","0","6","1","3","0.299999988","stim/T120.jpg","65","65","0.30000000800000004","3","1","3","","3","1","2","3","2","2","1","4","0","2","0","1","4","6","0","6","6","1","7","1","4","6","0","5","5","5","0","5","5","5","3","3","4","0","3","5","3","4","0","5","3","0","4","5","5","1","5","5","5","5","5","6","6","5","5","3","2","2","4","4","3","agree","550.6999999880791","","","","","","","","<div style=""font-size:60px;"">?</div>","65","17","1","0.8"
"image-keyboard-response","68","422455","0.0-11.0-0.17","y7p1vwtez88kaul","1","6119f273a257113cf7558c74","23","021998","single","english","very basic italian","Female","Asian","No","Undergraduate degree","Yes, but not at a university","N/A","N/A","N/A","4","0","6","1","3","0.299999988","stim/T120.jpg","65","65","0.30000000800000004","3","1","3","","3","1","2","3","2","2","1","4","0","2","0","1","4","6","0","6","6","1","7","1","4","6","0","5","5","5","0","5","5","5","3","3","4","0","3","5","3","4","0","5","3","0","4","5","5","1","5","5","5","5","5","6","6","5","5","3","2","2","4","4","3","agree","null","","","","","","","","stim/H100.jpg","null","","",""
"html-keyboard-response","69","422523","0.0-11.0-1.17","y7p1vwtez88kaul","1","6119f273a257113cf7558c74","23","021998","single","english","very basic italian","Female","Asian","No","Undergraduate degree","Yes, but not at a university","N/A","N/A","N/A","4","0","6","1","3","0.299999988","stim/T120.jpg","65","65","0.30000000800000004","3","1","3","","3","1","2","3","2","2","1","4","0","2","0","1","4","6","0","6","6","1","7","1","4","6","0","5","5","5","0","5","5","5","3","3","4","0","3","5","3","4","0","5","3","0","4","5","5","1","5","5","5","5","5","6","6","5","5","3","2","2","4","4","3","agree","66.5","","","","","","","","<div style=""font-size:60px;"">?</div>","76","18","1","0.8"
"image-keyboard-response","70","423533","0.0-11.0-0.18","y7p1vwtez88kaul","1","6119f273a257113cf7558c74","23","021998","single","english","very basic italian","Female","Asian","No","Undergraduate degree","Yes, but not at a university","N/A","N/A","N/A","4","0","6","1","3","0.299999988","stim/T120.jpg","65","65","0.30000000800000004","3","1","3","","3","1","2","3","2","2","1","4","0","2","0","1","4","6","0","6","6","1","7","1","4","6","0","5","5","5","0","5","5","5","3","3","4","0","3","5","3","4","0","5","3","0","4","5","5","1","5","5","5","5","5","6","6","5","5","3","2","2","4","4","3","agree","null","","","","","","","","stim/H170.jpg","null","","",""
"html-keyboard-response","71","423793","0.0-11.0-1.18","y7p1vwtez88kaul","1","6119f273a257113cf7558c74","23","021998","single","english","very basic italian","Female","Asian","No","Undergraduate degree","Yes, but not at a university","N/A","N/A","N/A","4","0","6","1","3","0.299999988","stim/T120.jpg","65","65","0.30000000800000004","3","1","3","","3","1","2","3","2","2","1","4","0","2","0","1","4","6","0","6","6","1","7","1","4","6","0","5","5","5","0","5","5","5","3","3","4","0","3","5","3","4","0","5","3","0","4","5","5","1","5","5","5","5","5","6","6","5","5","3","2","2","4","4","3","agree","258.60000002384186","","","","","","","","<div style=""font-size:60px;"">?</div>","76","19","1","0.8"
"image-keyboard-response","72","424798","0.0-11.0-0.19","y7p1vwtez88kaul","1","6119f273a257113cf7558c74","23","021998","single","english","very basic italian","Female","Asian","No","Undergraduate degree","Yes, but not at a university","N/A","N/A","N/A","4","0","6","1","3","0.299999988","stim/T120.jpg","65","65","0.30000000800000004","3","1","3","","3","1","2","3","2","2","1","4","0","2","0","1","4","6","0","6","6","1","7","1","4","6","0","5","5","5","0","5","5","5","3","3","4","0","3","5","3","4","0","5","3","0","4","5","5","1","5","5","5","5","5","6","6","5","5","3","2","2","4","4","3","agree","null","","","","","","","","stim/H020.jpg","null","","",""
"html-keyboard-response","73","425404","0.0-11.0-1.19","y7p1vwtez88kaul","1","6119f273a257113cf7558c74","23","021998","single","english","very basic italian","Female","Asian","No","Undergraduate degree","Yes, but not at a university","N/A","N/A","N/A","4","0","6","1","3","0.299999988","stim/T120.jpg","65","65","0.30000000800000004","3","1","3","","3","1","2","3","2","2","1","4","0","2","0","1","4","6","0","6","6","1","7","1","4","6","0","5","5","5","0","5","5","5","3","3","4","0","3","5","3","4","0","5","3","0","4","5","5","1","5","5","5","5","5","6","6","5","5","3","2","2","4","4","3","agree","604.5","","","","","","","","<div style=""font-size:60px;"">?</div>","65","20","1","0.8"
"image-keyboard-response","74","426409","0.0-11.0-0.20","y7p1vwtez88kaul","1","6119f273a257113cf7558c74","23","021998","single","english","very basic italian","Female","Asian","No","Undergraduate degree","Yes, but not at a university","N/A","N/A","N/A","4","0","6","1","3","0.299999988","stim/T120.jpg","65","65","0.30000000800000004","3","1","3","","3","1","2","3","2","2","1","4","0","2","0","1","4","6","0","6","6","1","7","1","4","6","0","5","5","5","0","5","5","5","3","3","4","0","3","5","3","4","0","5","3","0","4","5","5","1","5","5","5","5","5","6","6","5","5","3","2","2","4","4","3","agree","null","","","","","","","","stim/H240.jpg","null","","",""
"html-keyboard-response","75","427581","0.0-11.0-1.20","y7p1vwtez88kaul","1","6119f273a257113cf7558c74","23","021998","single","english","very basic italian","Female","Asian","No","Undergraduate degree","Yes, but not at a university","N/A","N/A","N/A","4","0","6","1","3","0.299999988","stim/T120.jpg","65","65","0.30000000800000004","3","1","3","","3","1","2","3","2","2","1","4","0","2","0","1","4","6","0","6","6","1","7","1","4","6","0","5","5","5","0","5","5","5","3","3","4","0","3","5","3","4","0","5","3","0","4","5","5","1","5","5","5","5","5","6","6","5","5","3","2","2","4","4","3","agree","1171.199999988079","","","","","","","","<div style=""font-size:60px;"">?</div>","76","21","1","0.8"
"image-keyboard-response","76","428587","0.0-11.0-0.21","y7p1vwtez88kaul","1","6119f273a257113cf7558c74","23","021998","single","english","very basic italian","Female","Asian","No","Undergraduate degree","Yes, but not at a university","N/A","N/A","N/A","4","0","6","1","3","0.299999988","stim/T120.jpg","65","65","0.30000000800000004","3","1","3","","3","1","2","3","2","2","1","4","0","2","0","1","4","6","0","6","6","1","7","1","4","6","0","5","5","5","0","5","5","5","3","3","4","0","3","5","3","4","0","5","3","0","4","5","5","1","5","5","5","5","5","6","6","5","5","3","2","2","4","4","3","agree","null","","","","","","","","stim/T240.jpg","null","","",""
"html-keyboard-response","77","429251","0.0-11.0-1.21","y7p1vwtez88kaul","1","6119f273a257113cf7558c74","23","021998","single","english","very basic italian","Female","Asian","No","Undergraduate degree","Yes, but not at a university","N/A","N/A","N/A","4","0","6","1","3","0.299999988","stim/T120.jpg","65","65","0.30000000800000004","3","1","3","","3","1","2","3","2","2","1","4","0","2","0","1","4","6","0","6","6","1","7","1","4","6","0","5","5","5","0","5","5","5","3","3","4","0","3","5","3","4","0","5","3","0","4","5","5","1","5","5","5","5","5","6","6","5","5","3","2","2","4","4","3","agree","662.5","","","","","","","","<div style=""font-size:60px;"">?</div>","65","22","1","0.8"
"image-keyboard-response","78","430262","0.0-11.0-0.22","y7p1vwtez88kaul","1","6119f273a257113cf7558c74","23","021998","single","english","very basic italian","Female","Asian","No","Undergraduate degree","Yes, but not at a university","N/A","N/A","N/A","4","0","6","1","3","0.299999988","stim/T120.jpg","65","65","0.30000000800000004","3","1","3","","3","1","2","3","2","2","1","4","0","2","0","1","4","6","0","6","6","1","7","1","4","6","0","5","5","5","0","5","5","5","3","3","4","0","3","5","3","4","0","5","3","0","4","5","5","1","5","5","5","5","5","6","6","5","5","3","2","2","4","4","3","agree","null","","","","","","","","stim/H220.jpg","null","","",""
"html-keyboard-response","79","430798","0.0-11.0-1.22","y7p1vwtez88kaul","1","6119f273a257113cf7558c74","23","021998","single","english","very basic italian","Female","Asian","No","Undergraduate degree","Yes, but not at a university","N/A","N/A","N/A","4","0","6","1","3","0.299999988","stim/T120.jpg","65","65","0.30000000800000004","3","1","3","","3","1","2","3","2","2","1","4","0","2","0","1","4","6","0","6","6","1","7","1","4","6","0","5","5","5","0","5","5","5","3","3","4","0","3","5","3","4","0","5","3","0","4","5","5","1","5","5","5","5","5","6","6","5","5","3","2","2","4","4","3","agree","535","","","","","","","","<div style=""font-size:60px;"">?</div>","76","23","1","0.8"
"image-keyboard-response","80","431803","0.0-11.0-0.23","y7p1vwtez88kaul","1","6119f273a257113cf7558c74","23","021998","single","english","very basic italian","Female","Asian","No","Undergraduate degree","Yes, but not at a university","N/A","N/A","N/A","4","0","6","1","3","0.299999988","stim/T120.jpg","65","65","0.30000000800000004","3","1","3","","3","1","2","3","2","2","1","4","0","2","0","1","4","6","0","6","6","1","7","1","4","6","0","5","5","5","0","5","5","5","3","3","4","0","3","5","3","4","0","5","3","0","4","5","5","1","5","5","5","5","5","6","6","5","5","3","2","2","4","4","3","agree","null","","","","","","","","stim/H290.jpg","null","","",""
"html-keyboard-response","81","431995","0.0-11.0-1.23","y7p1vwtez88kaul","1","6119f273a257113cf7558c74","23","021998","single","english","very basic italian","Female","Asian","No","Undergraduate degree","Yes, but not at a university","N/A","N/A","N/A","4","0","6","1","3","0.299999988","stim/T120.jpg","65","65","0.30000000800000004","3","1","3","","3","1","2","3","2","2","1","4","0","2","0","1","4","6","0","6","6","1","7","1","4","6","0","5","5","5","0","5","5","5","3","3","4","0","3","5","3","4","0","5","3","0","4","5","5","1","5","5","5","5","5","6","6","5","5","3","2","2","4","4","3","agree","191.79999995231628","","","","","","","","<div style=""font-size:60px;"">?</div>","76","24","1","0.8"
"image-keyboard-response","82","433000","0.0-11.0-0.24","y7p1vwtez88kaul","1","6119f273a257113cf7558c74","23","021998","single","english","very basic italian","Female","Asian","No","Undergraduate degree","Yes, but not at a university","N/A","N/A","N/A","4","0","6","1","3","0.299999988","stim/T120.jpg","65","65","0.30000000800000004","3","1","3","","3","1","2","3","2","2","1","4","0","2","0","1","4","6","0","6","6","1","7","1","4","6","0","5","5","5","0","5","5","5","3","3","4","0","3","5","3","4","0","5","3","0","4","5","5","1","5","5","5","5","5","6","6","5","5","3","2","2","4","4","3","agree","null","","","","","","","","stim/T150.jpg","null","","",""
"html-keyboard-response","83","433393","0.0-11.0-1.24","y7p1vwtez88kaul","1","6119f273a257113cf7558c74","23","021998","single","english","very basic italian","Female","Asian","No","Undergraduate degree","Yes, but not at a university","N/A","N/A","N/A","4","0","6","1","3","0.299999988","stim/T120.jpg","65","65","0.30000000800000004","3","1","3","","3","1","2","3","2","2","1","4","0","2","0","1","4","6","0","6","6","1","7","1","4","6","0","5","5","5","0","5","5","5","3","3","4","0","3","5","3","4","0","5","3","0","4","5","5","1","5","5","5","5","5","6","6","5","5","3","2","2","4","4","3","agree","391.7000000476837","","","","","","","","<div style=""font-size:60px;"">?</div>","65","25","1","0.8"
"image-keyboard-response","84","434399","0.0-11.0-0.25","y7p1vwtez88kaul","1","6119f273a257113cf7558c74","23","021998","single","english","very basic italian","Female","Asian","No","Undergraduate degree","Yes, but not at a university","N/A","N/A","N/A","4","0","6","1","3","0.299999988","stim/T120.jpg","65","65","0.30000000800000004","3","1","3","","3","1","2","3","2","2","1","4","0","2","0","1","4","6","0","6","6","1","7","1","4","6","0","5","5","5","0","5","5","5","3","3","4","0","3","5","3","4","0","5","3","0","4","5","5","1","5","5","5","5","5","6","6","5","5","3","2","2","4","4","3","agree","null","","","","","","","","stim/H290.jpg","null","","",""
"html-keyboard-response","85","434602","0.0-11.0-1.25","y7p1vwtez88kaul","1","6119f273a257113cf7558c74","23","021998","single","english","very basic italian","Female","Asian","No","Undergraduate degree","Yes, but not at a university","N/A","N/A","N/A","4","0","6","1","3","0.299999988","stim/T120.jpg","65","65","0.30000000800000004","3","1","3","","3","1","2","3","2","2","1","4","0","2","0","1","4","6","0","6","6","1","7","1","4","6","0","5","5","5","0","5","5","5","3","3","4","0","3","5","3","4","0","5","3","0","4","5","5","1","5","5","5","5","5","6","6","5","5","3","2","2","4","4","3","agree","201.89999997615814","","","","","","","","<div style=""font-size:60px;"">?</div>","76","26","1","0.8"
"image-keyboard-response","86","435608","0.0-11.0-0.26","y7p1vwtez88kaul","1","6119f273a257113cf7558c74","23","021998","single","english","very basic italian","Female","Asian","No","Undergraduate degree","Yes, but not at a university","N/A","N/A","N/A","4","0","6","1","3","0.299999988","stim/T120.jpg","65","65","0.30000000800000004","3","1","3","","3","1","2","3","2","2","1","4","0","2","0","1","4","6","0","6","6","1","7","1","4","6","0","5","5","5","0","5","5","5","3","3","4","0","3","5","3","4","0","5","3","0","4","5","5","1","5","5","5","5","5","6","6","5","5","3","2","2","4","4","3","agree","null","","","","","","","","stim/H300.jpg","null","","",""
"html-keyboard-response","87","435705","0.0-11.0-1.26","y7p1vwtez88kaul","1","6119f273a257113cf7558c74","23","021998","single","english","very basic italian","Female","Asian","No","Undergraduate degree","Yes, but not at a university","N/A","N/A","N/A","4","0","6","1","3","0.299999988","stim/T120.jpg","65","65","0.30000000800000004","3","1","3","","3","1","2","3","2","2","1","4","0","2","0","1","4","6","0","6","6","1","7","1","4","6","0","5","5","5","0","5","5","5","3","3","4","0","3","5","3","4","0","5","3","0","4","5","5","1","5","5","5","5","5","6","6","5","5","3","2","2","4","4","3","agree","95.59999996423721","","","","","","","","<div style=""font-size:60px;"">?</div>","76","27","1","0.8"
"image-keyboard-response","88","436714","0.0-11.0-0.27","y7p1vwtez88kaul","1","6119f273a257113cf7558c74","23","021998","single","english","very basic italian","Female","Asian","No","Undergraduate degree","Yes, but not at a university","N/A","N/A","N/A","4","0","6","1","3","0.299999988","stim/T120.jpg","65","65","0.30000000800000004","3","1","3","","3","1","2","3","2","2","1","4","0","2","0","1","4","6","0","6","6","1","7","1","4","6","0","5","5","5","0","5","5","5","3","3","4","0","3","5","3","4","0","5","3","0","4","5","5","1","5","5","5","5","5","6","6","5","5","3","2","2","4","4","3","agree","null","","","","","","","","stim/T080.jpg","null","","",""
"html-keyboard-response","89","436750","0.0-11.0-1.27","y7p1vwtez88kaul","1","6119f273a257113cf7558c74","23","021998","single","english","very basic italian","Female","Asian","No","Undergraduate degree","Yes, but not at a university","N/A","N/A","N/A","4","0","6","1","3","0.299999988","stim/T120.jpg","65","65","0.30000000800000004","3","1","3","","3","1","2","3","2","2","1","4","0","2","0","1","4","6","0","6","6","1","7","1","4","6","0","5","5","5","0","5","5","5","3","3","4","0","3","5","3","4","0","5","3","0","4","5","5","1","5","5","5","5","5","6","6","5","5","3","2","2","4","4","3","agree","35.200000047683716","","","","","","","","<div style=""font-size:60px;"">?</div>","65","28","1","0.8"
"image-keyboard-response","90","437753","0.0-11.0-0.28","y7p1vwtez88kaul","1","6119f273a257113cf7558c74","23","021998","single","english","very basic italian","Female","Asian","No","Undergraduate degree","Yes, but not at a university","N/A","N/A","N/A","4","0","6","1","3","0.299999988","stim/T120.jpg","65","65","0.30000000800000004","3","1","3","","3","1","2","3","2","2","1","4","0","2","0","1","4","6","0","6","6","1","7","1","4","6","0","5","5","5","0","5","5","5","3","3","4","0","3","5","3","4","0","5","3","0","4","5","5","1","5","5","5","5","5","6","6","5","5","3","2","2","4","4","3","agree","null","","","","","","","","stim/H260.jpg","null","","",""
"html-keyboard-response","91","437880","0.0-11.0-1.28","y7p1vwtez88kaul","1","6119f273a257113cf7558c74","23","021998","single","english","very basic italian","Female","Asian","No","Undergraduate degree","Yes, but not at a university","N/A","N/A","N/A","4","0","6","1","3","0.299999988","stim/T120.jpg","65","65","0.30000000800000004","3","1","3","","3","1","2","3","2","2","1","4","0","2","0","1","4","6","0","6","6","1","7","1","4","6","0","5","5","5","0","5","5","5","3","3","4","0","3","5","3","4","0","5","3","0","4","5","5","1","5","5","5","5","5","6","6","5","5","3","2","2","4","4","3","agree","126","","","","","","","","<div style=""font-size:60px;"">?</div>","76","29","1","0.8"
"image-keyboard-response","92","438890","0.0-11.0-0.29","y7p1vwtez88kaul","1","6119f273a257113cf7558c74","23","021998","single","english","very basic italian","Female","Asian","No","Undergraduate degree","Yes, but not at a university","N/A","N/A","N/A","4","0","6","1","3","0.299999988","stim/T120.jpg","65","65","0.30000000800000004","3","1","3","","3","1","2","3","2","2","1","4","0","2","0","1","4","6","0","6","6","1","7","1","4","6","0","5","5","5","0","5","5","5","3","3","4","0","3","5","3","4","0","5","3","0","4","5","5","1","5","5","5","5","5","6","6","5","5","3","2","2","4","4","3","agree","null","","","","","","","","stim/H020.jpg","null","","",""
"html-keyboard-response","93","439274","0.0-11.0-1.29","y7p1vwtez88kaul","1","6119f273a257113cf7558c74","23","021998","single","english","very basic italian","Female","Asian","No","Undergraduate degree","Yes, but not at a university","N/A","N/A","N/A","4","0","6","1","3","0.299999988","stim/T120.jpg","65","65","0.30000000800000004","3","1","3","","3","1","2","3","2","2","1","4","0","2","0","1","4","6","0","6","6","1","7","1","4","6","0","5","5","5","0","5","5","5","3","3","4","0","3","5","3","4","0","5","3","0","4","5","5","1","5","5","5","5","5","6","6","5","5","3","2","2","4","4","3","agree","383.19999998807907","","","","","","","","<div style=""font-size:60px;"">?</div>","65","30","1","0.8"
"image-keyboard-response","94","440281","0.0-11.0-0.30","y7p1vwtez88kaul","1","6119f273a257113cf7558c74","23","021998","single","english","very basic italian","Female","Asian","No","Undergraduate degree","Yes, but not at a university","N/A","N/A","N/A","4","0","6","1","3","0.299999988","stim/T120.jpg","65","65","0.30000000800000004","3","1","3","","3","1","2","3","2","2","1","4","0","2","0","1","4","6","0","6","6","1","7","1","4","6","0","5","5","5","0","5","5","5","3","3","4","0","3","5","3","4","0","5","3","0","4","5","5","1","5","5","5","5","5","6","6","5","5","3","2","2","4","4","3","agree","null","","","","","","","","stim/H300.jpg","null","","",""
"html-keyboard-response","95","440407","0.0-11.0-1.30","y7p1vwtez88kaul","1","6119f273a257113cf7558c74","23","021998","single","english","very basic italian","Female","Asian","No","Undergraduate degree","Yes, but not at a university","N/A","N/A","N/A","4","0","6","1","3","0.299999988","stim/T120.jpg","65","65","0.30000000800000004","3","1","3","","3","1","2","3","2","2","1","4","0","2","0","1","4","6","0","6","6","1","7","1","4","6","0","5","5","5","0","5","5","5","3","3","4","0","3","5","3","4","0","5","3","0","4","5","5","1","5","5","5","5","5","6","6","5","5","3","2","2","4","4","3","agree","125.30000001192093","","","","","","","","<div style=""font-size:60px;"">?</div>","76","31","1","0.8"
"image-keyboard-response","96","441414","0.0-11.0-0.31","y7p1vwtez88kaul","1","6119f273a257113cf7558c74","23","021998","single","english","very basic italian","Female","Asian","No","Undergraduate degree","Yes, but not at a university","N/A","N/A","N/A","4","0","6","1","3","0.299999988","stim/T120.jpg","65","65","0.30000000800000004","3","1","3","","3","1","2","3","2","2","1","4","0","2","0","1","4","6","0","6","6","1","7","1","4","6","0","5","5","5","0","5","5","5","3","3","4","0","3","5","3","4","0","5","3","0","4","5","5","1","5","5","5","5","5","6","6","5","5","3","2","2","4","4","3","agree","null","","","","","","","","stim/H300.jpg","null","","",""
"html-keyboard-response","97","441436","0.0-11.0-1.31","y7p1vwtez88kaul","1","6119f273a257113cf7558c74","23","021998","single","english","very basic italian","Female","Asian","No","Undergraduate degree","Yes, but not at a university","N/A","N/A","N/A","4","0","6","1","3","0.299999988","stim/T120.jpg","65","65","0.30000000800000004","3","1","3","","3","1","2","3","2","2","1","4","0","2","0","1","4","6","0","6","6","1","7","1","4","6","0","5","5","5","0","5","5","5","3","3","4","0","3","5","3","4","0","5","3","0","4","5","5","1","5","5","5","5","5","6","6","5","5","3","2","2","4","4","3","agree","21.69999998807907","","","","","","","","<div style=""font-size:60px;"">?</div>","76","32","1","0.8"
"image-keyboard-response","98","442445","0.0-11.0-0.32","y7p1vwtez88kaul","1","6119f273a257113cf7558c74","23","021998","single","english","very basic italian","Female","Asian","No","Undergraduate degree","Yes, but not at a university","N/A","N/A","N/A","4","0","6","1","3","0.299999988","stim/T120.jpg","65","65","0.30000000800000004","3","1","3","","3","1","2","3","2","2","1","4","0","2","0","1","4","6","0","6","6","1","7","1","4","6","0","5","5","5","0","5","5","5","3","3","4","0","3","5","3","4","0","5","3","0","4","5","5","1","5","5","5","5","5","6","6","5","5","3","2","2","4","4","3","agree","null","","","","","","","","stim/H230.jpg","null","","",""
"html-keyboard-response","99","442897","0.0-11.0-1.32","y7p1vwtez88kaul","1","6119f273a257113cf7558c74","23","021998","single","english","very basic italian","Female","Asian","No","Undergraduate degree","Yes, but not at a university","N/A","N/A","N/A","4","0","6","1","3","0.299999988","stim/T120.jpg","65","65","0.30000000800000004","3","1","3","","3","1","2","3","2","2","1","4","0","2","0","1","4","6","0","6","6","1","7","1","4","6","0","5","5","5","0","5","5","5","3","3","4","0","3","5","3","4","0","5","3","0","4","5","5","1","5","5","5","5","5","6","6","5","5","3","2","2","4","4","3","agree","450.9000000357628","","","","","","","","<div style=""font-size:60px;"">?</div>","76","33","1","0.8"
"image-keyboard-response","100","443904","0.0-11.0-0.33","y7p1vwtez88kaul","1","6119f273a257113cf7558c74","23","021998","single","english","very basic italian","Female","Asian","No","Undergraduate degree","Yes, but not at a university","N/A","N/A","N/A","4","0","6","1","3","0.299999988","stim/T120.jpg","65","65","0.30000000800000004","3","1","3","","3","1","2","3","2","2","1","4","0","2","0","1","4","6","0","6","6","1","7","1","4","6","0","5","5","5","0","5","5","5","3","3","4","0","3","5","3","4","0","5","3","0","4","5","5","1","5","5","5","5","5","6","6","5","5","3","2","2","4","4","3","agree","null","","","","","","","","stim/H010.jpg","null","","",""
"html-keyboard-response","101","444121","0.0-11.0-1.33","y7p1vwtez88kaul","1","6119f273a257113cf7558c74","23","021998","single","english","very basic italian","Female","Asian","No","Undergraduate degree","Yes, but not at a university","N/A","N/A","N/A","4","0","6","1","3","0.299999988","stim/T120.jpg","65","65","0.30000000800000004","3","1","3","","3","1","2","3","2","2","1","4","0","2","0","1","4","6","0","6","6","1","7","1","4","6","0","5","5","5","0","5","5","5","3","3","4","0","3","5","3","4","0","5","3","0","4","5","5","1","5","5","5","5","5","6","6","5","5","3","2","2","4","4","3","agree","215.69999998807907","","","","","","","","<div style=""font-size:60px;"">?</div>","65","34","1","0.8"
"image-keyboard-response","102","445130","0.0-11.0-0.34","y7p1vwtez88kaul","1","6119f273a257113cf7558c74","23","021998","single","english","very basic italian","Female","Asian","No","Undergraduate degree","Yes, but not at a university","N/A","N/A","N/A","4","0","6","1","3","0.299999988","stim/T120.jpg","65","65","0.30000000800000004","3","1","3","","3","1","2","3","2","2","1","4","0","2","0","1","4","6","0","6","6","1","7","1","4","6","0","5","5","5","0","5","5","5","3","3","4","0","3","5","3","4","0","5","3","0","4","5","5","1","5","5","5","5","5","6","6","5","5","3","2","2","4","4","3","agree","null","","","","","","","","stim/H300.jpg","null","","",""
"html-keyboard-response","103","445217","0.0-11.0-1.34","y7p1vwtez88kaul","1","6119f273a257113cf7558c74","23","021998","single","english","very basic italian","Female","Asian","No","Undergraduate degree","Yes, but not at a university","N/A","N/A","N/A","4","0","6","1","3","0.299999988","stim/T120.jpg","65","65","0.30000000800000004","3","1","3","","3","1","2","3","2","2","1","4","0","2","0","1","4","6","0","6","6","1","7","1","4","6","0","5","5","5","0","5","5","5","3","3","4","0","3","5","3","4","0","5","3","0","4","5","5","1","5","5","5","5","5","6","6","5","5","3","2","2","4","4","3","agree","85.60000002384186","","","","","","","","<div style=""font-size:60px;"">?</div>","76","35","1","0.8"
"image-keyboard-response","104","446224","0.0-11.0-0.35","y7p1vwtez88kaul","1","6119f273a257113cf7558c74","23","021998","single","english","very basic italian","Female","Asian","No","Undergraduate degree","Yes, but not at a university","N/A","N/A","N/A","4","0","6","1","3","0.299999988","stim/T120.jpg","65","65","0.30000000800000004","3","1","3","","3","1","2","3","2","2","1","4","0","2","0","1","4","6","0","6","6","1","7","1","4","6","0","5","5","5","0","5","5","5","3","3","4","0","3","5","3","4","0","5","3","0","4","5","5","1","5","5","5","5","5","6","6","5","5","3","2","2","4","4","3","agree","null","","","","","","","","stim/H050.jpg","null","","",""
"html-keyboard-response","105","446613","0.0-11.0-1.35","y7p1vwtez88kaul","1","6119f273a257113cf7558c74","23","021998","single","english","very basic italian","Female","Asian","No","Undergraduate degree","Yes, but not at a university","N/A","N/A","N/A","4","0","6","1","3","0.299999988","stim/T120.jpg","65","65","0.30000000800000004","3","1","3","","3","1","2","3","2","2","1","4","0","2","0","1","4","6","0","6","6","1","7","1","4","6","0","5","5","5","0","5","5","5","3","3","4","0","3","5","3","4","0","5","3","0","4","5","5","1","5","5","5","5","5","6","6","5","5","3","2","2","4","4","3","agree","387.80000001192093","","","","","","","","<div style=""font-size:60px;"">?</div>","65","36","1","0.8"
"image-keyboard-response","106","447618","0.0-11.0-0.36","y7p1vwtez88kaul","1","6119f273a257113cf7558c74","23","021998","single","english","very basic italian","Female","Asian","No","Undergraduate degree","Yes, but not at a university","N/A","N/A","N/A","4","0","6","1","3","0.299999988","stim/T120.jpg","65","65","0.30000000800000004","3","1","3","","3","1","2","3","2","2","1","4","0","2","0","1","4","6","0","6","6","1","7","1","4","6","0","5","5","5","0","5","5","5","3","3","4","0","3","5","3","4","0","5","3","0","4","5","5","1","5","5","5","5","5","6","6","5","5","3","2","2","4","4","3","agree","null","","","","","","","","stim/H050.jpg","null","","",""
"html-keyboard-response","107","447990","0.0-11.0-1.36","y7p1vwtez88kaul","1","6119f273a257113cf7558c74","23","021998","single","english","very basic italian","Female","Asian","No","Undergraduate degree","Yes, but not at a university","N/A","N/A","N/A","4","0","6","1","3","0.299999988","stim/T120.jpg","65","65","0.30000000800000004","3","1","3","","3","1","2","3","2","2","1","4","0","2","0","1","4","6","0","6","6","1","7","1","4","6","0","5","5","5","0","5","5","5","3","3","4","0","3","5","3","4","0","5","3","0","4","5","5","1","5","5","5","5","5","6","6","5","5","3","2","2","4","4","3","agree","371.5","","","","","","","","<div style=""font-size:60px;"">?</div>","65","37","1","0.8"
"image-keyboard-response","108","448999","0.0-11.0-0.37","y7p1vwtez88kaul","1","6119f273a257113cf7558c74","23","021998","single","english","very basic italian","Female","Asian","No","Undergraduate degree","Yes, but not at a university","N/A","N/A","N/A","4","0","6","1","3","0.299999988","stim/T120.jpg","65","65","0.30000000800000004","3","1","3","","3","1","2","3","2","2","1","4","0","2","0","1","4","6","0","6","6","1","7","1","4","6","0","5","5","5","0","5","5","5","3","3","4","0","3","5","3","4","0","5","3","0","4","5","5","1","5","5","5","5","5","6","6","5","5","3","2","2","4","4","3","agree","null","","","","","","","","stim/H120.jpg","null","","",""
"html-keyboard-response","109","449503","0.0-11.0-1.37","y7p1vwtez88kaul","1","6119f273a257113cf7558c74","23","021998","single","english","very basic italian","Female","Asian","No","Undergraduate degree","Yes, but not at a university","N/A","N/A","N/A","4","0","6","1","3","0.299999988","stim/T120.jpg","65","65","0.30000000800000004","3","1","3","","3","1","2","3","2","2","1","4","0","2","0","1","4","6","0","6","6","1","7","1","4","6","0","5","5","5","0","5","5","5","3","3","4","0","3","5","3","4","0","5","3","0","4","5","5","1","5","5","5","5","5","6","6","5","5","3","2","2","4","4","3","agree","502.69999998807907","","","","","","","","<div style=""font-size:60px;"">?</div>","65","38","1","0.8"
"image-keyboard-response","110","450506","0.0-11.0-0.38","y7p1vwtez88kaul","1","6119f273a257113cf7558c74","23","021998","single","english","very basic italian","Female","Asian","No","Undergraduate degree","Yes, but not at a university","N/A","N/A","N/A","4","0","6","1","3","0.299999988","stim/T120.jpg","65","65","0.30000000800000004","3","1","3","","3","1","2","3","2","2","1","4","0","2","0","1","4","6","0","6","6","1","7","1","4","6","0","5","5","5","0","5","5","5","3","3","4","0","3","5","3","4","0","5","3","0","4","5","5","1","5","5","5","5","5","6","6","5","5","3","2","2","4","4","3","agree","null","","","","","","","","stim/H230.jpg","null","","",""
"html-keyboard-response","111","451107","0.0-11.0-1.38","y7p1vwtez88kaul","1","6119f273a257113cf7558c74","23","021998","single","english","very basic italian","Female","Asian","No","Undergraduate degree","Yes, but not at a university","N/A","N/A","N/A","4","0","6","1","3","0.299999988","stim/T120.jpg","65","65","0.30000000800000004","3","1","3","","3","1","2","3","2","2","1","4","0","2","0","1","4","6","0","6","6","1","7","1","4","6","0","5","5","5","0","5","5","5","3","3","4","0","3","5","3","4","0","5","3","0","4","5","5","1","5","5","5","5","5","6","6","5","5","3","2","2","4","4","3","agree","599.3000000119209","","","","","","","","<div style=""font-size:60px;"">?</div>","76","39","1","0.8"
"image-keyboard-response","112","452113","0.0-11.0-0.39","y7p1vwtez88kaul","1","6119f273a257113cf7558c74","23","021998","single","english","very basic italian","Female","Asian","No","Undergraduate degree","Yes, but not at a university","N/A","N/A","N/A","4","0","6","1","3","0.299999988","stim/T120.jpg","65","65","0.30000000800000004","3","1","3","","3","1","2","3","2","2","1","4","0","2","0","1","4","6","0","6","6","1","7","1","4","6","0","5","5","5","0","5","5","5","3","3","4","0","3","5","3","4","0","5","3","0","4","5","5","1","5","5","5","5","5","6","6","5","5","3","2","2","4","4","3","agree","null","","","","","","","","stim/T120.jpg","null","","",""
"html-keyboard-response","113","453374","0.0-11.0-1.39","y7p1vwtez88kaul","1","6119f273a257113cf7558c74","23","021998","single","english","very basic italian","Female","Asian","No","Undergraduate degree","Yes, but not at a university","N/A","N/A","N/A","4","0","6","1","3","0.299999988","stim/T120.jpg","65","65","0.30000000800000004","3","1","3","","3","1","2","3","2","2","1","4","0","2","0","1","4","6","0","6","6","1","7","1","4","6","0","5","5","5","0","5","5","5","3","3","4","0","3","5","3","4","0","5","3","0","4","5","5","1","5","5","5","5","5","6","6","5","5","3","2","2","4","4","3","agree","1260.300000011921","","","","","","","","<div style=""font-size:60px;"">?</div>","65","40","1","0.8"
"image-keyboard-response","114","454379","0.0-11.0-0.40","y7p1vwtez88kaul","1","6119f273a257113cf7558c74","23","021998","single","english","very basic italian","Female","Asian","No","Undergraduate degree","Yes, but not at a university","N/A","N/A","N/A","4","0","6","1","3","0.299999988","stim/T120.jpg","65","65","0.30000000800000004","3","1","3","","3","1","2","3","2","2","1","4","0","2","0","1","4","6","0","6","6","1","7","1","4","6","0","5","5","5","0","5","5","5","3","3","4","0","3","5","3","4","0","5","3","0","4","5","5","1","5","5","5","5","5","6","6","5","5","3","2","2","4","4","3","agree","null","","","","","","","","stim/H140.jpg","null","","",""
"html-keyboard-response","115","455044","0.0-11.0-1.40","y7p1vwtez88kaul","1","6119f273a257113cf7558c74","23","021998","single","english","very basic italian","Female","Asian","No","Undergraduate degree","Yes, but not at a university","N/A","N/A","N/A","4","0","6","1","3","0.299999988","stim/T120.jpg","65","65","0.30000000800000004","3","1","3","","3","1","2","3","2","2","1","4","0","2","0","1","4","6","0","6","6","1","7","1","4","6","0","5","5","5","0","5","5","5","3","3","4","0","3","5","3","4","0","5","3","0","4","5","5","1","5","5","5","5","5","6","6","5","5","3","2","2","4","4","3","agree","664.2000000476837","","","","","","","","<div style=""font-size:60px;"">?</div>","65","41","1","0.8"
"image-keyboard-response","116","456049","0.0-11.0-0.41","y7p1vwtez88kaul","1","6119f273a257113cf7558c74","23","021998","single","english","very basic italian","Female","Asian","No","Undergraduate degree","Yes, but not at a university","N/A","N/A","N/A","4","0","6","1","3","0.299999988","stim/T120.jpg","65","65","0.30000000800000004","3","1","3","","3","1","2","3","2","2","1","4","0","2","0","1","4","6","0","6","6","1","7","1","4","6","0","5","5","5","0","5","5","5","3","3","4","0","3","5","3","4","0","5","3","0","4","5","5","1","5","5","5","5","5","6","6","5","5","3","2","2","4","4","3","agree","null","","","","","","","","stim/T270.jpg","null","","",""
"html-keyboard-response","117","457522","0.0-11.0-1.41","y7p1vwtez88kaul","1","6119f273a257113cf7558c74","23","021998","single","english","very basic italian","Female","Asian","No","Undergraduate degree","Yes, but not at a university","N/A","N/A","N/A","4","0","6","1","3","0.299999988","stim/T120.jpg","65","65","0.30000000800000004","3","1","3","","3","1","2","3","2","2","1","4","0","2","0","1","4","6","0","6","6","1","7","1","4","6","0","5","5","5","0","5","5","5","3","3","4","0","3","5","3","4","0","5","3","0","4","5","5","1","5","5","5","5","5","6","6","5","5","3","2","2","4","4","3","agree","1472","","","","","","","","<div style=""font-size:60px;"">?</div>","65","42","1","0.8"
"image-keyboard-response","118","458527","0.0-11.0-0.42","y7p1vwtez88kaul","1","6119f273a257113cf7558c74","23","021998","single","english","very basic italian","Female","Asian","No","Undergraduate degree","Yes, but not at a university","N/A","N/A","N/A","4","0","6","1","3","0.299999988","stim/T120.jpg","65","65","0.30000000800000004","3","1","3","","3","1","2","3","2","2","1","4","0","2","0","1","4","6","0","6","6","1","7","1","4","6","0","5","5","5","0","5","5","5","3","3","4","0","3","5","3","4","0","5","3","0","4","5","5","1","5","5","5","5","5","6","6","5","5","3","2","2","4","4","3","agree","null","","","","","","","","stim/H190.jpg","null","","",""
"html-keyboard-response","119","459205","0.0-11.0-1.42","y7p1vwtez88kaul","1","6119f273a257113cf7558c74","23","021998","single","english","very basic italian","Female","Asian","No","Undergraduate degree","Yes, but not at a university","N/A","N/A","N/A","4","0","6","1","3","0.299999988","stim/T120.jpg","65","65","0.30000000800000004","3","1","3","","3","1","2","3","2","2","1","4","0","2","0","1","4","6","0","6","6","1","7","1","4","6","0","5","5","5","0","5","5","5","3","3","4","0","3","5","3","4","0","5","3","0","4","5","5","1","5","5","5","5","5","6","6","5","5","3","2","2","4","4","3","agree","676.8000000119209","","","","","","","","<div style=""font-size:60px;"">?</div>","76","43","1","0.8"
"image-keyboard-response","120","460212","0.0-11.0-0.43","y7p1vwtez88kaul","1","6119f273a257113cf7558c74","23","021998","single","english","very basic italian","Female","Asian","No","Undergraduate degree","Yes, but not at a university","N/A","N/A","N/A","4","0","6","1","3","0.299999988","stim/T120.jpg","65","65","0.30000000800000004","3","1","3","","3","1","2","3","2","2","1","4","0","2","0","1","4","6","0","6","6","1","7","1","4","6","0","5","5","5","0","5","5","5","3","3","4","0","3","5","3","4","0","5","3","0","4","5","5","1","5","5","5","5","5","6","6","5","5","3","2","2","4","4","3","agree","null","","","","","","","","stim/T020.jpg","null","","",""
"html-keyboard-response","121","460749","0.0-11.0-1.43","y7p1vwtez88kaul","1","6119f273a257113cf7558c74","23","021998","single","english","very basic italian","Female","Asian","No","Undergraduate degree","Yes, but not at a university","N/A","N/A","N/A","4","0","6","1","3","0.299999988","stim/T120.jpg","65","65","0.30000000800000004","3","1","3","","3","1","2","3","2","2","1","4","0","2","0","1","4","6","0","6","6","1","7","1","4","6","0","5","5","5","0","5","5","5","3","3","4","0","3","5","3","4","0","5","3","0","4","5","5","1","5","5","5","5","5","6","6","5","5","3","2","2","4","4","3","agree","535.5","","","","","","","","<div style=""font-size:60px;"">?</div>","65","44","1","0.8"
"image-keyboard-response","122","461752","0.0-11.0-0.44","y7p1vwtez88kaul","1","6119f273a257113cf7558c74","23","021998","single","english","very basic italian","Female","Asian","No","Undergraduate degree","Yes, but not at a university","N/A","N/A","N/A","4","0","6","1","3","0.299999988","stim/T120.jpg","65","65","0.30000000800000004","3","1","3","","3","1","2","3","2","2","1","4","0","2","0","1","4","6","0","6","6","1","7","1","4","6","0","5","5","5","0","5","5","5","3","3","4","0","3","5","3","4","0","5","3","0","4","5","5","1","5","5","5","5","5","6","6","5","5","3","2","2","4","4","3","agree","null","","","","","","","","stim/H050.jpg","null","","",""
"html-keyboard-response","123","462252","0.0-11.0-1.44","y7p1vwtez88kaul","1","6119f273a257113cf7558c74","23","021998","single","english","very basic italian","Female","Asian","No","Undergraduate degree","Yes, but not at a university","N/A","N/A","N/A","4","0","6","1","3","0.299999988","stim/T120.jpg","65","65","0.30000000800000004","3","1","3","","3","1","2","3","2","2","1","4","0","2","0","1","4","6","0","6","6","1","7","1","4","6","0","5","5","5","0","5","5","5","3","3","4","0","3","5","3","4","0","5","3","0","4","5","5","1","5","5","5","5","5","6","6","5","5","3","2","2","4","4","3","agree","499.0999999642372","","","","","","","","<div style=""font-size:60px;"">?</div>","65","45","1","0.8"
"image-keyboard-response","124","463254","0.0-11.0-0.45","y7p1vwtez88kaul","1","6119f273a257113cf7558c74","23","021998","single","english","very basic italian","Female","Asian","No","Undergraduate degree","Yes, but not at a university","N/A","N/A","N/A","4","0","6","1","3","0.299999988","stim/T120.jpg","65","65","0.30000000800000004","3","1","3","","3","1","2","3","2","2","1","4","0","2","0","1","4","6","0","6","6","1","7","1","4","6","0","5","5","5","0","5","5","5","3","3","4","0","3","5","3","4","0","5","3","0","4","5","5","1","5","5","5","5","5","6","6","5","5","3","2","2","4","4","3","agree","null","","","","","","","","stim/H140.jpg","null","","",""
"html-keyboard-response","125","463706","0.0-11.0-1.45","y7p1vwtez88kaul","1","6119f273a257113cf7558c74","23","021998","single","english","very basic italian","Female","Asian","No","Undergraduate degree","Yes, but not at a university","N/A","N/A","N/A","4","0","6","1","3","0.299999988","stim/T120.jpg","65","65","0.30000000800000004","3","1","3","","3","1","2","3","2","2","1","4","0","2","0","1","4","6","0","6","6","1","7","1","4","6","0","5","5","5","0","5","5","5","3","3","4","0","3","5","3","4","0","5","3","0","4","5","5","1","5","5","5","5","5","6","6","5","5","3","2","2","4","4","3","agree","451.0999999642372","","","","","","","","<div style=""font-size:60px;"">?</div>","76","46","1","0.8"
"image-keyboard-response","126","464713","0.0-11.0-0.46","y7p1vwtez88kaul","1","6119f273a257113cf7558c74","23","021998","single","english","very basic italian","Female","Asian","No","Undergraduate degree","Yes, but not at a university","N/A","N/A","N/A","4","0","6","1","3","0.299999988","stim/T120.jpg","65","65","0.30000000800000004","3","1","3","","3","1","2","3","2","2","1","4","0","2","0","1","4","6","0","6","6","1","7","1","4","6","0","5","5","5","0","5","5","5","3","3","4","0","3","5","3","4","0","5","3","0","4","5","5","1","5","5","5","5","5","6","6","5","5","3","2","2","4","4","3","agree","null","","","","","","","","stim/H160.jpg","null","","",""
"html-keyboard-response","127","465213","0.0-11.0-1.46","y7p1vwtez88kaul","1","6119f273a257113cf7558c74","23","021998","single","english","very basic italian","Female","Asian","No","Undergraduate degree","Yes, but not at a university","N/A","N/A","N/A","4","0","6","1","3","0.299999988","stim/T120.jpg","65","65","0.30000000800000004","3","1","3","","3","1","2","3","2","2","1","4","0","2","0","1","4","6","0","6","6","1","7","1","4","6","0","5","5","5","0","5","5","5","3","3","4","0","3","5","3","4","0","5","3","0","4","5","5","1","5","5","5","5","5","6","6","5","5","3","2","2","4","4","3","agree","498.9000000357628","","","","","","","","<div style=""font-size:60px;"">?</div>","76","47","1","0.8"
"image-keyboard-response","128","466219","0.0-11.0-0.47","y7p1vwtez88kaul","1","6119f273a257113cf7558c74","23","021998","single","english","very basic italian","Female","Asian","No","Undergraduate degree","Yes, but not at a university","N/A","N/A","N/A","4","0","6","1","3","0.299999988","stim/T120.jpg","65","65","0.30000000800000004","3","1","3","","3","1","2","3","2","2","1","4","0","2","0","1","4","6","0","6","6","1","7","1","4","6","0","5","5","5","0","5","5","5","3","3","4","0","3","5","3","4","0","5","3","0","4","5","5","1","5","5","5","5","5","6","6","5","5","3","2","2","4","4","3","agree","null","","","","","","","","stim/H280.jpg","null","","",""
"html-keyboard-response","129","466734","0.0-11.0-1.47","y7p1vwtez88kaul","1","6119f273a257113cf7558c74","23","021998","single","english","very basic italian","Female","Asian","No","Undergraduate degree","Yes, but not at a university","N/A","N/A","N/A","4","0","6","1","3","0.299999988","stim/T120.jpg","65","65","0.30000000800000004","3","1","3","","3","1","2","3","2","2","1","4","0","2","0","1","4","6","0","6","6","1","7","1","4","6","0","5","5","5","0","5","5","5","3","3","4","0","3","5","3","4","0","5","3","0","4","5","5","1","5","5","5","5","5","6","6","5","5","3","2","2","4","4","3","agree","513.5","","","","","","","","<div style=""font-size:60px;"">?</div>","76","48","1","0.8"
"image-keyboard-response","130","467747","0.0-11.0-0.48","y7p1vwtez88kaul","1","6119f273a257113cf7558c74","23","021998","single","english","very basic italian","Female","Asian","No","Undergraduate degree","Yes, but not at a university","N/A","N/A","N/A","4","0","6","1","3","0.299999988","stim/T120.jpg","65","65","0.30000000800000004","3","1","3","","3","1","2","3","2","2","1","4","0","2","0","1","4","6","0","6","6","1","7","1","4","6","0","5","5","5","0","5","5","5","3","3","4","0","3","5","3","4","0","5","3","0","4","5","5","1","5","5","5","5","5","6","6","5","5","3","2","2","4","4","3","agree","null","","","","","","","","stim/H110.jpg","null","","",""
"html-keyboard-response","131","468504","0.0-11.0-1.48","y7p1vwtez88kaul","1","6119f273a257113cf7558c74","23","021998","single","english","very basic italian","Female","Asian","No","Undergraduate degree","Yes, but not at a university","N/A","N/A","N/A","4","0","6","1","3","0.299999988","stim/T120.jpg","65","65","0.30000000800000004","3","1","3","","3","1","2","3","2","2","1","4","0","2","0","1","4","6","0","6","6","1","7","1","4","6","0","5","5","5","0","5","5","5","3","3","4","0","3","5","3","4","0","5","3","0","4","5","5","1","5","5","5","5","5","6","6","5","5","3","2","2","4","4","3","agree","742.8000000119209","","","","","","","","<div style=""font-size:60px;"">?</div>","76","49","1","0.8"
"image-keyboard-response","132","469511","0.0-11.0-0.49","y7p1vwtez88kaul","1","6119f273a257113cf7558c74","23","021998","single","english","very basic italian","Female","Asian","No","Undergraduate degree","Yes, but not at a university","N/A","N/A","N/A","4","0","6","1","3","0.299999988","stim/T120.jpg","65","65","0.30000000800000004","3","1","3","","3","1","2","3","2","2","1","4","0","2","0","1","4","6","0","6","6","1","7","1","4","6","0","5","5","5","0","5","5","5","3","3","4","0","3","5","3","4","0","5","3","0","4","5","5","1","5","5","5","5","5","6","6","5","5","3","2","2","4","4","3","agree","null","","","","","","","","stim/H030.jpg","null","","",""
"html-keyboard-response","133","470186","0.0-11.0-1.49","y7p1vwtez88kaul","1","6119f273a257113cf7558c74","23","021998","single","english","very basic italian","Female","Asian","No","Undergraduate degree","Yes, but not at a university","N/A","N/A","N/A","4","0","6","1","3","0.299999988","stim/T120.jpg","65","65","0.30000000800000004","3","1","3","","3","1","2","3","2","2","1","4","0","2","0","1","4","6","0","6","6","1","7","1","4","6","0","5","5","5","0","5","5","5","3","3","4","0","3","5","3","4","0","5","3","0","4","5","5","1","5","5","5","5","5","6","6","5","5","3","2","2","4","4","3","agree","673.8000000119209","","","","","","","","<div style=""font-size:60px;"">?</div>","76","50","1","0.8"
"html-keyboard-response","134","472310","0.0-12.0","y7p1vwtez88kaul","1","6119f273a257113cf7558c74","23","021998","single","english","very basic italian","Female","Asian","No","Undergraduate degree","Yes, but not at a university","N/A","N/A","N/A","4","0","6","1","3","0.299999988","stim/T120.jpg","65","65","0.30000000800000004","3","1","3","","3","1","2","3","2","2","1","4","0","2","0","1","4","6","0","6","6","1","7","1","4","6","0","5","5","5","0","5","5","5","3","3","4","0","3","5","3","4","0","5","3","0","4","5","5","1","5","5","5","5","5","6","6","5","5","3","2","2","4","4","3","agree","1618","","","","","","","","<p>Block 2</p><p>Press SPACE to continue.</p>","32","","",""
"image-keyboard-response","135","473816","0.0-13.0-0.0","y7p1vwtez88kaul","1","6119f273a257113cf7558c74","23","021998","single","english","very basic italian","Female","Asian","No","Undergraduate degree","Yes, but not at a university","N/A","N/A","N/A","4","0","6","1","3","0.299999988","stim/T120.jpg","65","65","0.30000000800000004","3","1","3","","3","1","2","3","2","2","1","4","0","2","0","1","4","6","0","6","6","1","7","1","4","6","0","5","5","5","0","5","5","5","3","3","4","0","3","5","3","4","0","5","3","0","4","5","5","1","5","5","5","5","5","6","6","5","5","3","2","2","4","4","3","agree","null","","","","","","","","stim/H250.jpg","null","","",""
"html-keyboard-response","136","474593","0.0-13.0-1.0","y7p1vwtez88kaul","1","6119f273a257113cf7558c74","23","021998","single","english","very basic italian","Female","Asian","No","Undergraduate degree","Yes, but not at a university","N/A","N/A","N/A","4","0","6","1","3","0.299999988","stim/T120.jpg","65","65","0.30000000800000004","3","1","3","","3","1","2","3","2","2","1","4","0","2","0","1","4","6","0","6","6","1","7","1","4","6","0","5","5","5","0","5","5","5","3","3","4","0","3","5","3","4","0","5","3","0","4","5","5","1","5","5","5","5","5","6","6","5","5","3","2","2","4","4","3","agree","776.3999999761581","","","","","","","","<div style=""font-size:60px;"">?</div>","76","1","2","0.8"
"image-keyboard-response","137","475598","0.0-13.0-0.1","y7p1vwtez88kaul","1","6119f273a257113cf7558c74","23","021998","single","english","very basic italian","Female","Asian","No","Undergraduate degree","Yes, but not at a university","N/A","N/A","N/A","4","0","6","1","3","0.299999988","stim/T120.jpg","65","65","0.30000000800000004","3","1","3","","3","1","2","3","2","2","1","4","0","2","0","1","4","6","0","6","6","1","7","1","4","6","0","5","5","5","0","5","5","5","3","3","4","0","3","5","3","4","0","5","3","0","4","5","5","1","5","5","5","5","5","6","6","5","5","3","2","2","4","4","3","agree","null","","","","","","","","stim/H100.jpg","null","","",""
"html-keyboard-response","138","475857","0.0-13.0-1.1","y7p1vwtez88kaul","1","6119f273a257113cf7558c74","23","021998","single","english","very basic italian","Female","Asian","No","Undergraduate degree","Yes, but not at a university","N/A","N/A","N/A","4","0","6","1","3","0.299999988","stim/T120.jpg","65","65","0.30000000800000004","3","1","3","","3","1","2","3","2","2","1","4","0","2","0","1","4","6","0","6","6","1","7","1","4","6","0","5","5","5","0","5","5","5","3","3","4","0","3","5","3","4","0","5","3","0","4","5","5","1","5","5","5","5","5","6","6","5","5","3","2","2","4","4","3","agree","257.30000001192093","","","","","","","","<div style=""font-size:60px;"">?</div>","76","2","2","0.8"
"image-keyboard-response","139","476863","0.0-13.0-0.2","y7p1vwtez88kaul","1","6119f273a257113cf7558c74","23","021998","single","english","very basic italian","Female","Asian","No","Undergraduate degree","Yes, but not at a university","N/A","N/A","N/A","4","0","6","1","3","0.299999988","stim/T120.jpg","65","65","0.30000000800000004","3","1","3","","3","1","2","3","2","2","1","4","0","2","0","1","4","6","0","6","6","1","7","1","4","6","0","5","5","5","0","5","5","5","3","3","4","0","3","5","3","4","0","5","3","0","4","5","5","1","5","5","5","5","5","6","6","5","5","3","2","2","4","4","3","agree","null","","","","","","","","stim/H140.jpg","null","","",""
"html-keyboard-response","140","476908","0.0-13.0-1.2","y7p1vwtez88kaul","1","6119f273a257113cf7558c74","23","021998","single","english","very basic italian","Female","Asian","No","Undergraduate degree","Yes, but not at a university","N/A","N/A","N/A","4","0","6","1","3","0.299999988","stim/T120.jpg","65","65","0.30000000800000004","3","1","3","","3","1","2","3","2","2","1","4","0","2","0","1","4","6","0","6","6","1","7","1","4","6","0","5","5","5","0","5","5","5","3","3","4","0","3","5","3","4","0","5","3","0","4","5","5","1","5","5","5","5","5","6","6","5","5","3","2","2","4","4","3","agree","42.90000003576279","","","","","","","","<div style=""font-size:60px;"">?</div>","76","3","2","0.8"
"image-keyboard-response","141","477912","0.0-13.0-0.3","y7p1vwtez88kaul","1","6119f273a257113cf7558c74","23","021998","single","english","very basic italian","Female","Asian","No","Undergraduate degree","Yes, but not at a university","N/A","N/A","N/A","4","0","6","1","3","0.299999988","stim/T120.jpg","65","65","0.30000000800000004","3","1","3","","3","1","2","3","2","2","1","4","0","2","0","1","4","6","0","6","6","1","7","1","4","6","0","5","5","5","0","5","5","5","3","3","4","0","3","5","3","4","0","5","3","0","4","5","5","1","5","5","5","5","5","6","6","5","5","3","2","2","4","4","3","agree","null","","","","","","","","stim/H020.jpg","null","","",""
"html-keyboard-response","142","478455","0.0-13.0-1.3","y7p1vwtez88kaul","1","6119f273a257113cf7558c74","23","021998","single","english","very basic italian","Female","Asian","No","Undergraduate degree","Yes, but not at a university","N/A","N/A","N/A","4","0","6","1","3","0.299999988","stim/T120.jpg","65","65","0.30000000800000004","3","1","3","","3","1","2","3","2","2","1","4","0","2","0","1","4","6","0","6","6","1","7","1","4","6","0","5","5","5","0","5","5","5","3","3","4","0","3","5","3","4","0","5","3","0","4","5","5","1","5","5","5","5","5","6","6","5","5","3","2","2","4","4","3","agree","541.6000000238419","","","","","","","","<div style=""font-size:60px;"">?</div>","65","4","2","0.8"
