"trial_type","trial_index","time_elapsed","internal_node_id","subject","condition","ID","age","dob","marital","natlang","olang","gender","ethnicity","mental_check","educ_l","educ_c","mental","mentdrug","mentpos","sesparent","sesstudent","sesladder","educ_hs","educ_ce","s1self","chosenbody","s1selfjudge","s2selfjudge","s2self","sspc_01","sspc_02","pas_01","pas_02","pas_03","pas_04","pas_05","pas_06","pas_07","pas_08","pas_09","pas_10","pas_11","pas_12","pas_13","pas_14","contact_01","contact_02","contact_03","contact_04","contact_05","contact_06","contact_07","contact_08","contact_09","idnd_01","idnd_02","idnd_03","idnd_04","idnd_05","idnd_06","idnd_07","idnd_08","catch_01","adig_01","adig_02","adig_03","plcs_01","plcs_02","plcs_03","plcs_04","plcs_05","plcs_06","plcs_07","plcs_08","plcs_09","plcs_10","plcs_11","plcs_12","catch_02","wwwp_01","wwwp_02","wwwp_03","wwwp_04","wwwp_05","wwwp_06","wwwp_07","wwwp_08","wwwp_09","lsns_fam_1","lsns_fam_2","lsns_fam_3","lsns_fri_1","lsns_fri_2","lsns_fri_3","debrief","rt","url","success","view_history","responses","question_order","final_value","start_value","stimulus","key_press","trial","block","freq"
"pavlovia","0","3","0.0-0.0","nvqg8010acx1326","1","6110b1dcbb626d41122cb7bd","25","01/1996","single","English","French, Italian","Female","White or Caucasian","No","Undergraduate degree","Yes, Graduate studies","N/A","N/A","N/A","9","0","6","1","0","0.4166666900000001","stim/T050.jpg","76","76","0.44999998199999997","3","1","3","","2","3","4","3","3","1","2","3","1","1","1","2","4","5","1","3","5","1","5","2","4","4","0","4","3","3","3","3","4","5","3","3","3","1","3","3","4","3","4","4","3","3","3","3","3","1","3","3","4","4","1","2","3","3","3","5","5","3","3","3","2","agree","","","","","","","","","","","","",""
"external-html","1","12493","0.0-1.0","nvqg8010acx1326","1","6110b1dcbb626d41122cb7bd","25","01/1996","single","English","French, Italian","Female","White or Caucasian","No","Undergraduate degree","Yes, Graduate studies","N/A","N/A","N/A","9","0","6","1","0","0.4166666900000001","stim/T050.jpg","76","76","0.44999998199999997","3","1","3","","2","3","4","3","3","1","2","3","1","1","1","2","4","5","1","3","5","1","5","2","4","4","0","4","3","3","3","3","4","5","3","3","3","1","3","3","4","3","4","4","3","3","3","3","3","1","3","3","4","4","1","2","3","3","3","5","5","3","3","3","2","agree","12359.39999999106","sub/html/consent.html","","","","","","","","","","",""
"fullscreen","2","27842","0.0-2.0","nvqg8010acx1326","1","6110b1dcbb626d41122cb7bd","25","01/1996","single","English","French, Italian","Female","White or Caucasian","No","Undergraduate degree","Yes, Graduate studies","N/A","N/A","N/A","9","0","6","1","0","0.4166666900000001","stim/T050.jpg","76","76","0.44999998199999997","3","1","3","","2","3","4","3","3","1","2","3","1","1","1","2","4","5","1","3","5","1","5","2","4","4","0","4","3","3","3","3","4","5","3","3","3","1","3","3","4","3","4","4","3","3","3","3","3","1","3","3","4","4","1","2","3","3","3","5","5","3","3","3","2","agree","","","true","","","","","","","","","",""
"instructions","3","45836","0.0-3.0","nvqg8010acx1326","1","6110b1dcbb626d41122cb7bd","25","01/1996","single","English","French, Italian","Female","White or Caucasian","No","Undergraduate degree","Yes, Graduate studies","N/A","N/A","N/A","9","0","6","1","0","0.4166666900000001","stim/T050.jpg","76","76","0.44999998199999997","3","1","3","","2","3","4","3","3","1","2","3","1","1","1","2","4","5","1","3","5","1","5","2","4","4","0","4","3","3","3","3","4","5","3","3","3","1","3","3","4","3","4","4","3","3","3","3","3","1","3","3","4","4","1","2","3","3","3","5","5","3","3","3","2","agree","17993.19999998808","","","[{""page_index"":0,""viewing_time"":3202.5},{""page_index"":1,""viewing_time"":14788.89999999106}]","","","","","","","","",""
"survey-text","4","83305","0.0-4.0-0.0","nvqg8010acx1326","1","6110b1dcbb626d41122cb7bd","25","01/1996","single","English","French, Italian","Female","White or Caucasian","No","Undergraduate degree","Yes, Graduate studies","N/A","N/A","N/A","9","0","6","1","0","0.4166666900000001","stim/T050.jpg","76","76","0.44999998199999997","3","1","3","","2","3","4","3","3","1","2","3","1","1","1","2","4","5","1","3","5","1","5","2","4","4","0","4","3","3","3","3","4","5","3","3","3","1","3","3","4","3","4","4","3","3","3","3","3","1","3","3","4","4","1","2","3","3","3","5","5","3","3","3","2","agree","37453.10000000894","","","","{""ID"":""6110b1dcbb626d41122cb7bd"",""age"":""25"",""dob"":""01/1996"",""marital"":""single"",""natlang"":""English"",""olang"":""French, Italian""}","","","","","","","",""
"survey-multi-choice","5","102975","0.0-4.0-1.0","nvqg8010acx1326","1","6110b1dcbb626d41122cb7bd","25","01/1996","single","English","French, Italian","Female","White or Caucasian","No","Undergraduate degree","Yes, Graduate studies","N/A","N/A","N/A","9","0","6","1","0","0.4166666900000001","stim/T050.jpg","76","76","0.44999998199999997","3","1","3","","2","3","4","3","3","1","2","3","1","1","1","2","4","5","1","3","5","1","5","2","4","4","0","4","3","3","3","3","4","5","3","3","3","1","3","3","4","3","4","4","3","3","3","3","3","1","3","3","4","4","1","2","3","3","3","5","5","3","3","3","2","agree","19663.70000000298","","","","{""gender"":""Female"",""ethnicity"":""White or Caucasian"",""mental_check"":""No"",""educ_l"":""Undergraduate degree"",""educ_c"":""Yes, Graduate studies""}","[0,1,2,3,4]","","","","","","",""
"survey-text","6","118104","0.0-4.0-2.0","nvqg8010acx1326","1","6110b1dcbb626d41122cb7bd","25","01/1996","single","English","French, Italian","Female","White or Caucasian","No","Undergraduate degree","Yes, Graduate studies","N/A","N/A","N/A","9","0","6","1","0","0.4166666900000001","stim/T050.jpg","76","76","0.44999998199999997","3","1","3","","2","3","4","3","3","1","2","3","1","1","1","2","4","5","1","3","5","1","5","2","4","4","0","4","3","3","3","3","4","5","3","3","3","1","3","3","4","3","4","4","3","3","3","3","3","1","3","3","4","4","1","2","3","3","3","5","5","3","3","3","2","agree","15114.60000000894","","","","{""mental"":""N/A"",""mentdrug"":""N/A"",""mentpos"":""N/A""}","","","","","","","",""
"survey-likert","7","173962","0.0-4.0-3.0","nvqg8010acx1326","1","6110b1dcbb626d41122cb7bd","25","01/1996","single","English","French, Italian","Female","White or Caucasian","No","Undergraduate degree","Yes, Graduate studies","N/A","N/A","N/A","9","0","6","1","0","0.4166666900000001","stim/T050.jpg","76","76","0.44999998199999997","3","1","3","","2","3","4","3","3","1","2","3","1","1","1","2","4","5","1","3","5","1","5","2","4","4","0","4","3","3","3","3","4","5","3","3","3","1","3","3","4","3","4","4","3","3","3","3","3","1","3","3","4","4","1","2","3","3","3","5","5","3","3","3","2","agree","55851","","","","{""sesparent"":9,""sesstudent"":0,""sesladder"":6}","[0,1,2]","","","","","","",""
"survey-likert","8","214433","0.0-4.0-4.0","nvqg8010acx1326","1","6110b1dcbb626d41122cb7bd","25","01/1996","single","English","French, Italian","Female","White or Caucasian","No","Undergraduate degree","Yes, Graduate studies","N/A","N/A","N/A","9","0","6","1","0","0.4166666900000001","stim/T050.jpg","76","76","0.44999998199999997","3","1","3","","2","3","4","3","3","1","2","3","1","1","1","2","4","5","1","3","5","1","5","2","4","4","0","4","3","3","3","3","4","5","3","3","3","1","3","3","4","3","4","4","3","3","3","3","3","1","3","3","4","4","1","2","3","3","3","5","5","3","3","3","2","agree","40460","","","","{""educ_hs"":1,""educ_ce"":13}","[0,1]","","","","","","",""
"reconstruction","9","248996","0.0-5.0","nvqg8010acx1326","1","6110b1dcbb626d41122cb7bd","25","01/1996","single","English","French, Italian","Female","White or Caucasian","No","Undergraduate degree","Yes, Graduate studies","N/A","N/A","N/A","9","0","6","1","0","0.4166666900000001","stim/T050.jpg","76","76","0.44999998199999997","3","1","3","","2","3","4","3","3","1","2","3","1","1","1","2","4","5","1","3","5","1","5","2","4","4","0","4","3","3","3","3","4","5","3","3","3","1","3","3","4","3","4","4","3","3","3","3","3","1","3","3","4","4","1","2","3","3","3","5","5","3","3","3","2","agree","34552.79999999702","","","","","","0.4166666900000001","0.5","","","","",""
"image-keyboard-response","10","255417","0.0-6.0","nvqg8010acx1326","1","6110b1dcbb626d41122cb7bd","25","01/1996","single","English","French, Italian","Female","White or Caucasian","No","Undergraduate degree","Yes, Graduate studies","N/A","N/A","N/A","9","0","6","1","0","0.4166666900000001","stim/T050.jpg","76","76","0.44999998199999997","3","1","3","","2","3","4","3","3","1","2","3","1","1","1","2","4","5","1","3","5","1","5","2","4","4","0","4","3","3","3","3","4","5","3","3","3","1","3","3","4","3","4","4","3","3","3","3","3","1","3","3","4","4","1","2","3","3","3","5","5","3","3","3","2","agree","6417.0999999940395","","","","","","","","stim/T050.jpg","76","","",""
"instructions","11","318562","0.0-7.0","nvqg8010acx1326","1","6110b1dcbb626d41122cb7bd","25","01/1996","single","English","French, Italian","Female","White or Caucasian","No","Undergraduate degree","Yes, Graduate studies","N/A","N/A","N/A","9","0","6","1","0","0.4166666900000001","stim/T050.jpg","76","76","0.44999998199999997","3","1","3","","2","3","4","3","3","1","2","3","1","1","1","2","4","5","1","3","5","1","5","2","4","4","0","4","3","3","3","3","4","5","3","3","3","1","3","3","4","3","4","4","3","3","3","3","3","1","3","3","4","4","1","2","3","3","3","5","5","3","3","3","2","agree","63143.5","","","[{""page_index"":0,""viewing_time"":2864.2999999970198},{""page_index"":1,""viewing_time"":9541.300000011921},{""page_index"":2,""viewing_time"":6751.79999999702},{""page_index"":1,""viewing_time"":12004},{""page_index"":2,""viewing_time"":5346.899999991059},{""page_index"":3,""viewing_time"":8277.60000000894},{""page_index"":4,""viewing_time"":5326.29999999702},{""page_index"":5,""viewing_time"":8981.59999999404},{""page_index"":6,""viewing_time"":4049}]","","","","","","","","",""
"image-keyboard-response","12","319070","0.0-8.0-0.0","nvqg8010acx1326","1","6110b1dcbb626d41122cb7bd","25","01/1996","single","English","French, Italian","Female","White or Caucasian","No","Undergraduate degree","Yes, Graduate studies","N/A","N/A","N/A","9","0","6","1","0","0.4166666900000001","stim/T050.jpg","76","76","0.44999998199999997","3","1","3","","2","3","4","3","3","1","2","3","1","1","1","2","4","5","1","3","5","1","5","2","4","4","0","4","3","3","3","3","4","5","3","3","3","1","3","3","4","3","4","4","3","3","3","3","3","1","3","3","4","4","1","2","3","3","3","5","5","3","3","3","2","agree","null","","","","","","","","stim/H090.jpg","null","","",""
"html-keyboard-response","13","323103","0.0-8.0-1.0","nvqg8010acx1326","1","6110b1dcbb626d41122cb7bd","25","01/1996","single","English","French, Italian","Female","White or Caucasian","No","Undergraduate degree","Yes, Graduate studies","N/A","N/A","N/A","9","0","6","1","0","0.4166666900000001","stim/T050.jpg","76","76","0.44999998199999997","3","1","3","","2","3","4","3","3","1","2","3","1","1","1","2","4","5","1","3","5","1","5","2","4","4","0","4","3","3","3","3","4","5","3","3","3","1","3","3","4","3","4","4","3","3","3","3","3","1","3","3","4","4","1","2","3","3","3","5","5","3","3","3","2","agree","4031","","","","","","","","<div style=""font-size:60px;"">?</div>","76","1","Practice","0.5"
"image-keyboard-response","14","324120","0.0-8.0-0.1","nvqg8010acx1326","1","6110b1dcbb626d41122cb7bd","25","01/1996","single","English","French, Italian","Female","White or Caucasian","No","Undergraduate degree","Yes, Graduate studies","N/A","N/A","N/A","9","0","6","1","0","0.4166666900000001","stim/T050.jpg","76","76","0.44999998199999997","3","1","3","","2","3","4","3","3","1","2","3","1","1","1","2","4","5","1","3","5","1","5","2","4","4","0","4","3","3","3","3","4","5","3","3","3","1","3","3","4","3","4","4","3","3","3","3","3","1","3","3","4","4","1","2","3","3","3","5","5","3","3","3","2","agree","null","","","","","","","","stim/H290.jpg","null","","",""
"html-keyboard-response","15","324588","0.0-8.0-1.1","nvqg8010acx1326","1","6110b1dcbb626d41122cb7bd","25","01/1996","single","English","French, Italian","Female","White or Caucasian","No","Undergraduate degree","Yes, Graduate studies","N/A","N/A","N/A","9","0","6","1","0","0.4166666900000001","stim/T050.jpg","76","76","0.44999998199999997","3","1","3","","2","3","4","3","3","1","2","3","1","1","1","2","4","5","1","3","5","1","5","2","4","4","0","4","3","3","3","3","4","5","3","3","3","1","3","3","4","3","4","4","3","3","3","3","3","1","3","3","4","4","1","2","3","3","3","5","5","3","3","3","2","agree","467.30000001192093","","","","","","","","<div style=""font-size:60px;"">?</div>","65","2","Practice","0.5"
"image-keyboard-response","16","325596","0.0-8.0-0.2","nvqg8010acx1326","1","6110b1dcbb626d41122cb7bd","25","01/1996","single","English","French, Italian","Female","White or Caucasian","No","Undergraduate degree","Yes, Graduate studies","N/A","N/A","N/A","9","0","6","1","0","0.4166666900000001","stim/T050.jpg","76","76","0.44999998199999997","3","1","3","","2","3","4","3","3","1","2","3","1","1","1","2","4","5","1","3","5","1","5","2","4","4","0","4","3","3","3","3","4","5","3","3","3","1","3","3","4","3","4","4","3","3","3","3","3","1","3","3","4","4","1","2","3","3","3","5","5","3","3","3","2","agree","null","","","","","","","","stim/H090.jpg","null","","",""
"html-keyboard-response","17","325946","0.0-8.0-1.2","nvqg8010acx1326","1","6110b1dcbb626d41122cb7bd","25","01/1996","single","English","French, Italian","Female","White or Caucasian","No","Undergraduate degree","Yes, Graduate studies","N/A","N/A","N/A","9","0","6","1","0","0.4166666900000001","stim/T050.jpg","76","76","0.44999998199999997","3","1","3","","2","3","4","3","3","1","2","3","1","1","1","2","4","5","1","3","5","1","5","2","4","4","0","4","3","3","3","3","4","5","3","3","3","1","3","3","4","3","4","4","3","3","3","3","3","1","3","3","4","4","1","2","3","3","3","5","5","3","3","3","2","agree","348.8999999910593","","","","","","","","<div style=""font-size:60px;"">?</div>","76","3","Practice","0.5"
"image-keyboard-response","18","326962","0.0-8.0-0.3","nvqg8010acx1326","1","6110b1dcbb626d41122cb7bd","25","01/1996","single","English","French, Italian","Female","White or Caucasian","No","Undergraduate degree","Yes, Graduate studies","N/A","N/A","N/A","9","0","6","1","0","0.4166666900000001","stim/T050.jpg","76","76","0.44999998199999997","3","1","3","","2","3","4","3","3","1","2","3","1","1","1","2","4","5","1","3","5","1","5","2","4","4","0","4","3","3","3","3","4","5","3","3","3","1","3","3","4","3","4","4","3","3","3","3","3","1","3","3","4","4","1","2","3","3","3","5","5","3","3","3","2","agree","null","","","","","","","","stim/T180.jpg","null","","",""
"html-keyboard-response","19","329270","0.0-8.0-1.3","nvqg8010acx1326","1","6110b1dcbb626d41122cb7bd","25","01/1996","single","English","French, Italian","Female","White or Caucasian","No","Undergraduate degree","Yes, Graduate studies","N/A","N/A","N/A","9","0","6","1","0","0.4166666900000001","stim/T050.jpg","76","76","0.44999998199999997","3","1","3","","2","3","4","3","3","1","2","3","1","1","1","2","4","5","1","3","5","1","5","2","4","4","0","4","3","3","3","3","4","5","3","3","3","1","3","3","4","3","4","4","3","3","3","3","3","1","3","3","4","4","1","2","3","3","3","5","5","3","3","3","2","agree","2307.4000000059605","","","","","","","","<div style=""font-size:60px;"">?</div>","65","4","Practice","0.5"
"image-keyboard-response","20","330279","0.0-8.0-0.4","nvqg8010acx1326","1","6110b1dcbb626d41122cb7bd","25","01/1996","single","English","French, Italian","Female","White or Caucasian","No","Undergraduate degree","Yes, Graduate studies","N/A","N/A","N/A","9","0","6","1","0","0.4166666900000001","stim/T050.jpg","76","76","0.44999998199999997","3","1","3","","2","3","4","3","3","1","2","3","1","1","1","2","4","5","1","3","5","1","5","2","4","4","0","4","3","3","3","3","4","5","3","3","3","1","3","3","4","3","4","4","3","3","3","3","3","1","3","3","4","4","1","2","3","3","3","5","5","3","3","3","2","agree","null","","","","","","","","stim/H060.jpg","null","","",""
"html-keyboard-response","21","331427","0.0-8.0-1.4","nvqg8010acx1326","1","6110b1dcbb626d41122cb7bd","25","01/1996","single","English","French, Italian","Female","White or Caucasian","No","Undergraduate degree","Yes, Graduate studies","N/A","N/A","N/A","9","0","6","1","0","0.4166666900000001","stim/T050.jpg","76","76","0.44999998199999997","3","1","3","","2","3","4","3","3","1","2","3","1","1","1","2","4","5","1","3","5","1","5","2","4","4","0","4","3","3","3","3","4","5","3","3","3","1","3","3","4","3","4","4","3","3","3","3","3","1","3","3","4","4","1","2","3","3","3","5","5","3","3","3","2","agree","1147.0999999940395","","","","","","","","<div style=""font-size:60px;"">?</div>","76","5","Practice","0.5"
"image-keyboard-response","22","332436","0.0-8.0-0.5","nvqg8010acx1326","1","6110b1dcbb626d41122cb7bd","25","01/1996","single","English","French, Italian","Female","White or Caucasian","No","Undergraduate degree","Yes, Graduate studies","N/A","N/A","N/A","9","0","6","1","0","0.4166666900000001","stim/T050.jpg","76","76","0.44999998199999997","3","1","3","","2","3","4","3","3","1","2","3","1","1","1","2","4","5","1","3","5","1","5","2","4","4","0","4","3","3","3","3","4","5","3","3","3","1","3","3","4","3","4","4","3","3","3","3","3","1","3","3","4","4","1","2","3","3","3","5","5","3","3","3","2","agree","null","","","","","","","","stim/T030.jpg","null","","",""
"html-keyboard-response","23","332813","0.0-8.0-1.5","nvqg8010acx1326","1","6110b1dcbb626d41122cb7bd","25","01/1996","single","English","French, Italian","Female","White or Caucasian","No","Undergraduate degree","Yes, Graduate studies","N/A","N/A","N/A","9","0","6","1","0","0.4166666900000001","stim/T050.jpg","76","76","0.44999998199999997","3","1","3","","2","3","4","3","3","1","2","3","1","1","1","2","4","5","1","3","5","1","5","2","4","4","0","4","3","3","3","3","4","5","3","3","3","1","3","3","4","3","4","4","3","3","3","3","3","1","3","3","4","4","1","2","3","3","3","5","5","3","3","3","2","agree","375.30000001192093","","","","","","","","<div style=""font-size:60px;"">?</div>","76","6","Practice","0.5"
"image-keyboard-response","24","333824","0.0-8.0-0.6","nvqg8010acx1326","1","6110b1dcbb626d41122cb7bd","25","01/1996","single","English","French, Italian","Female","White or Caucasian","No","Undergraduate degree","Yes, Graduate studies","N/A","N/A","N/A","9","0","6","1","0","0.4166666900000001","stim/T050.jpg","76","76","0.44999998199999997","3","1","3","","2","3","4","3","3","1","2","3","1","1","1","2","4","5","1","3","5","1","5","2","4","4","0","4","3","3","3","3","4","5","3","3","3","1","3","3","4","3","4","4","3","3","3","3","3","1","3","3","4","4","1","2","3","3","3","5","5","3","3","3","2","agree","null","","","","","","","","stim/T090.jpg","null","","",""
"html-keyboard-response","25","334416","0.0-8.0-1.6","nvqg8010acx1326","1","6110b1dcbb626d41122cb7bd","25","01/1996","single","English","French, Italian","Female","White or Caucasian","No","Undergraduate degree","Yes, Graduate studies","N/A","N/A","N/A","9","0","6","1","0","0.4166666900000001","stim/T050.jpg","76","76","0.44999998199999997","3","1","3","","2","3","4","3","3","1","2","3","1","1","1","2","4","5","1","3","5","1","5","2","4","4","0","4","3","3","3","3","4","5","3","3","3","1","3","3","4","3","4","4","3","3","3","3","3","1","3","3","4","4","1","2","3","3","3","5","5","3","3","3","2","agree","591.3000000119209","","","","","","","","<div style=""font-size:60px;"">?</div>","76","7","Practice","0.5"
"image-keyboard-response","26","335422","0.0-8.0-0.7","nvqg8010acx1326","1","6110b1dcbb626d41122cb7bd","25","01/1996","single","English","French, Italian","Female","White or Caucasian","No","Undergraduate degree","Yes, Graduate studies","N/A","N/A","N/A","9","0","6","1","0","0.4166666900000001","stim/T050.jpg","76","76","0.44999998199999997","3","1","3","","2","3","4","3","3","1","2","3","1","1","1","2","4","5","1","3","5","1","5","2","4","4","0","4","3","3","3","3","4","5","3","3","3","1","3","3","4","3","4","4","3","3","3","3","3","1","3","3","4","4","1","2","3","3","3","5","5","3","3","3","2","agree","null","","","","","","","","stim/T300.jpg","null","","",""
"html-keyboard-response","27","336394","0.0-8.0-1.7","nvqg8010acx1326","1","6110b1dcbb626d41122cb7bd","25","01/1996","single","English","French, Italian","Female","White or Caucasian","No","Undergraduate degree","Yes, Graduate studies","N/A","N/A","N/A","9","0","6","1","0","0.4166666900000001","stim/T050.jpg","76","76","0.44999998199999997","3","1","3","","2","3","4","3","3","1","2","3","1","1","1","2","4","5","1","3","5","1","5","2","4","4","0","4","3","3","3","3","4","5","3","3","3","1","3","3","4","3","4","4","3","3","3","3","3","1","3","3","4","4","1","2","3","3","3","5","5","3","3","3","2","agree","970.9000000059605","","","","","","","","<div style=""font-size:60px;"">?</div>","65","8","Practice","0.5"
"image-keyboard-response","28","337400","0.0-8.0-0.8","nvqg8010acx1326","1","6110b1dcbb626d41122cb7bd","25","01/1996","single","English","French, Italian","Female","White or Caucasian","No","Undergraduate degree","Yes, Graduate studies","N/A","N/A","N/A","9","0","6","1","0","0.4166666900000001","stim/T050.jpg","76","76","0.44999998199999997","3","1","3","","2","3","4","3","3","1","2","3","1","1","1","2","4","5","1","3","5","1","5","2","4","4","0","4","3","3","3","3","4","5","3","3","3","1","3","3","4","3","4","4","3","3","3","3","3","1","3","3","4","4","1","2","3","3","3","5","5","3","3","3","2","agree","null","","","","","","","","stim/H190.jpg","null","","",""
"html-keyboard-response","29","338099","0.0-8.0-1.8","nvqg8010acx1326","1","6110b1dcbb626d41122cb7bd","25","01/1996","single","English","French, Italian","Female","White or Caucasian","No","Undergraduate degree","Yes, Graduate studies","N/A","N/A","N/A","9","0","6","1","0","0.4166666900000001","stim/T050.jpg","76","76","0.44999998199999997","3","1","3","","2","3","4","3","3","1","2","3","1","1","1","2","4","5","1","3","5","1","5","2","4","4","0","4","3","3","3","3","4","5","3","3","3","1","3","3","4","3","4","4","3","3","3","3","3","1","3","3","4","4","1","2","3","3","3","5","5","3","3","3","2","agree","697.7000000029802","","","","","","","","<div style=""font-size:60px;"">?</div>","65","9","Practice","0.5"
"image-keyboard-response","30","339112","0.0-8.0-0.9","nvqg8010acx1326","1","6110b1dcbb626d41122cb7bd","25","01/1996","single","English","French, Italian","Female","White or Caucasian","No","Undergraduate degree","Yes, Graduate studies","N/A","N/A","N/A","9","0","6","1","0","0.4166666900000001","stim/T050.jpg","76","76","0.44999998199999997","3","1","3","","2","3","4","3","3","1","2","3","1","1","1","2","4","5","1","3","5","1","5","2","4","4","0","4","3","3","3","3","4","5","3","3","3","1","3","3","4","3","4","4","3","3","3","3","3","1","3","3","4","4","1","2","3","3","3","5","5","3","3","3","2","agree","null","","","","","","","","stim/T300.jpg","null","","",""
"html-keyboard-response","31","339749","0.0-8.0-1.9","nvqg8010acx1326","1","6110b1dcbb626d41122cb7bd","25","01/1996","single","English","French, Italian","Female","White or Caucasian","No","Undergraduate degree","Yes, Graduate studies","N/A","N/A","N/A","9","0","6","1","0","0.4166666900000001","stim/T050.jpg","76","76","0.44999998199999997","3","1","3","","2","3","4","3","3","1","2","3","1","1","1","2","4","5","1","3","5","1","5","2","4","4","0","4","3","3","3","3","4","5","3","3","3","1","3","3","4","3","4","4","3","3","3","3","3","1","3","3","4","4","1","2","3","3","3","5","5","3","3","3","2","agree","636","","","","","","","","<div style=""font-size:60px;"">?</div>","65","10","Practice","0.5"
"html-keyboard-response","32","349758","0.0-9.0","nvqg8010acx1326","1","6110b1dcbb626d41122cb7bd","25","01/1996","single","English","French, Italian","Female","White or Caucasian","No","Undergraduate degree","Yes, Graduate studies","N/A","N/A","N/A","9","0","6","1","0","0.4166666900000001","stim/T050.jpg","76","76","0.44999998199999997","3","1","3","","2","3","4","3","3","1","2","3","1","1","1","2","4","5","1","3","5","1","5","2","4","4","0","4","3","3","3","3","4","5","3","3","3","1","3","3","4","3","4","4","3","3","3","3","3","1","3","3","4","4","1","2","3","3","3","5","5","3","3","3","2","agree","9501.20000000298","","","","","","","","<p>You have now completed the practice series.</p><p>If you have any questions, please reload this page and read the instructions again.</p><p>Otherwise, you're ready to begin the study!</p><p><strong>REMEMBER</strong>: Press <b>L </b>when you think the face is of Western origin, and <b>A </b>if not. </p><p>Press SPACE when you're ready to start!</p>","32","","",""
"html-keyboard-response","33","351386","0.0-10.0","nvqg8010acx1326","1","6110b1dcbb626d41122cb7bd","25","01/1996","single","English","French, Italian","Female","White or Caucasian","No","Undergraduate degree","Yes, Graduate studies","N/A","N/A","N/A","9","0","6","1","0","0.4166666900000001","stim/T050.jpg","76","76","0.44999998199999997","3","1","3","","2","3","4","3","3","1","2","3","1","1","1","2","4","5","1","3","5","1","5","2","4","4","0","4","3","3","3","3","4","5","3","3","3","1","3","3","4","3","4","4","3","3","3","3","3","1","3","3","4","4","1","2","3","3","3","5","5","3","3","3","2","agree","1124.3999999910593","","","","","","","","<p>Block 1</p><p>Press SPACE to continue.</p>","32","","",""
"image-keyboard-response","34","352897","0.0-11.0-0.0","nvqg8010acx1326","1","6110b1dcbb626d41122cb7bd","25","01/1996","single","English","French, Italian","Female","White or Caucasian","No","Undergraduate degree","Yes, Graduate studies","N/A","N/A","N/A","9","0","6","1","0","0.4166666900000001","stim/T050.jpg","76","76","0.44999998199999997","3","1","3","","2","3","4","3","3","1","2","3","1","1","1","2","4","5","1","3","5","1","5","2","4","4","0","4","3","3","3","3","4","5","3","3","3","1","3","3","4","3","4","4","3","3","3","3","3","1","3","3","4","4","1","2","3","3","3","5","5","3","3","3","2","agree","null","","","","","","","","stim/H300.jpg","null","","",""
"html-keyboard-response","35","353511","0.0-11.0-1.0","nvqg8010acx1326","1","6110b1dcbb626d41122cb7bd","25","01/1996","single","English","French, Italian","Female","White or Caucasian","No","Undergraduate degree","Yes, Graduate studies","N/A","N/A","N/A","9","0","6","1","0","0.4166666900000001","stim/T050.jpg","76","76","0.44999998199999997","3","1","3","","2","3","4","3","3","1","2","3","1","1","1","2","4","5","1","3","5","1","5","2","4","4","0","4","3","3","3","3","4","5","3","3","3","1","3","3","4","3","4","4","3","3","3","3","3","1","3","3","4","4","1","2","3","3","3","5","5","3","3","3","2","agree","612.9000000059605","","","","","","","","<div style=""font-size:60px;"">?</div>","65","1","1","0.8"
"image-keyboard-response","36","354516","0.0-11.0-0.1","nvqg8010acx1326","1","6110b1dcbb626d41122cb7bd","25","01/1996","single","English","French, Italian","Female","White or Caucasian","No","Undergraduate degree","Yes, Graduate studies","N/A","N/A","N/A","9","0","6","1","0","0.4166666900000001","stim/T050.jpg","76","76","0.44999998199999997","3","1","3","","2","3","4","3","3","1","2","3","1","1","1","2","4","5","1","3","5","1","5","2","4","4","0","4","3","3","3","3","4","5","3","3","3","1","3","3","4","3","4","4","3","3","3","3","3","1","3","3","4","4","1","2","3","3","3","5","5","3","3","3","2","agree","null","","","","","","","","stim/H020.jpg","null","","",""
"html-keyboard-response","37","354668","0.0-11.0-1.1","nvqg8010acx1326","1","6110b1dcbb626d41122cb7bd","25","01/1996","single","English","French, Italian","Female","White or Caucasian","No","Undergraduate degree","Yes, Graduate studies","N/A","N/A","N/A","9","0","6","1","0","0.4166666900000001","stim/T050.jpg","76","76","0.44999998199999997","3","1","3","","2","3","4","3","3","1","2","3","1","1","1","2","4","5","1","3","5","1","5","2","4","4","0","4","3","3","3","3","4","5","3","3","3","1","3","3","4","3","4","4","3","3","3","3","3","1","3","3","4","4","1","2","3","3","3","5","5","3","3","3","2","agree","150.79999999701977","","","","","","","","<div style=""font-size:60px;"">?</div>","76","2","1","0.8"
"image-keyboard-response","38","355682","0.0-11.0-0.2","nvqg8010acx1326","1","6110b1dcbb626d41122cb7bd","25","01/1996","single","English","French, Italian","Female","White or Caucasian","No","Undergraduate degree","Yes, Graduate studies","N/A","N/A","N/A","9","0","6","1","0","0.4166666900000001","stim/T050.jpg","76","76","0.44999998199999997","3","1","3","","2","3","4","3","3","1","2","3","1","1","1","2","4","5","1","3","5","1","5","2","4","4","0","4","3","3","3","3","4","5","3","3","3","1","3","3","4","3","4","4","3","3","3","3","3","1","3","3","4","4","1","2","3","3","3","5","5","3","3","3","2","agree","null","","","","","","","","stim/H180.jpg","null","","",""
"html-keyboard-response","39","355834","0.0-11.0-1.2","nvqg8010acx1326","1","6110b1dcbb626d41122cb7bd","25","01/1996","single","English","French, Italian","Female","White or Caucasian","No","Undergraduate degree","Yes, Graduate studies","N/A","N/A","N/A","9","0","6","1","0","0.4166666900000001","stim/T050.jpg","76","76","0.44999998199999997","3","1","3","","2","3","4","3","3","1","2","3","1","1","1","2","4","5","1","3","5","1","5","2","4","4","0","4","3","3","3","3","4","5","3","3","3","1","3","3","4","3","4","4","3","3","3","3","3","1","3","3","4","4","1","2","3","3","3","5","5","3","3","3","2","agree","150.29999999701977","","","","","","","","<div style=""font-size:60px;"">?</div>","65","3","1","0.8"
"image-keyboard-response","40","356844","0.0-11.0-0.3","nvqg8010acx1326","1","6110b1dcbb626d41122cb7bd","25","01/1996","single","English","French, Italian","Female","White or Caucasian","No","Undergraduate degree","Yes, Graduate studies","N/A","N/A","N/A","9","0","6","1","0","0.4166666900000001","stim/T050.jpg","76","76","0.44999998199999997","3","1","3","","2","3","4","3","3","1","2","3","1","1","1","2","4","5","1","3","5","1","5","2","4","4","0","4","3","3","3","3","4","5","3","3","3","1","3","3","4","3","4","4","3","3","3","3","3","1","3","3","4","4","1","2","3","3","3","5","5","3","3","3","2","agree","null","","","","","","","","stim/H200.jpg","null","","",""
"html-keyboard-response","41","357159","0.0-11.0-1.3","nvqg8010acx1326","1","6110b1dcbb626d41122cb7bd","25","01/1996","single","English","French, Italian","Female","White or Caucasian","No","Undergraduate degree","Yes, Graduate studies","N/A","N/A","N/A","9","0","6","1","0","0.4166666900000001","stim/T050.jpg","76","76","0.44999998199999997","3","1","3","","2","3","4","3","3","1","2","3","1","1","1","2","4","5","1","3","5","1","5","2","4","4","0","4","3","3","3","3","4","5","3","3","3","1","3","3","4","3","4","4","3","3","3","3","3","1","3","3","4","4","1","2","3","3","3","5","5","3","3","3","2","agree","313.5","","","","","","","","<div style=""font-size:60px;"">?</div>","65","4","1","0.8"
"image-keyboard-response","42","358170","0.0-11.0-0.4","nvqg8010acx1326","1","6110b1dcbb626d41122cb7bd","25","01/1996","single","English","French, Italian","Female","White or Caucasian","No","Undergraduate degree","Yes, Graduate studies","N/A","N/A","N/A","9","0","6","1","0","0.4166666900000001","stim/T050.jpg","76","76","0.44999998199999997","3","1","3","","2","3","4","3","3","1","2","3","1","1","1","2","4","5","1","3","5","1","5","2","4","4","0","4","3","3","3","3","4","5","3","3","3","1","3","3","4","3","4","4","3","3","3","3","3","1","3","3","4","4","1","2","3","3","3","5","5","3","3","3","2","agree","null","","","","","","","","stim/H120.jpg","null","","",""
"html-keyboard-response","43","358975","0.0-11.0-1.4","nvqg8010acx1326","1","6110b1dcbb626d41122cb7bd","25","01/1996","single","English","French, Italian","Female","White or Caucasian","No","Undergraduate degree","Yes, Graduate studies","N/A","N/A","N/A","9","0","6","1","0","0.4166666900000001","stim/T050.jpg","76","76","0.44999998199999997","3","1","3","","2","3","4","3","3","1","2","3","1","1","1","2","4","5","1","3","5","1","5","2","4","4","0","4","3","3","3","3","4","5","3","3","3","1","3","3","4","3","4","4","3","3","3","3","3","1","3","3","4","4","1","2","3","3","3","5","5","3","3","3","2","agree","803.8000000119209","","","","","","","","<div style=""font-size:60px;"">?</div>","76","5","1","0.8"
"image-keyboard-response","44","359984","0.0-11.0-0.5","nvqg8010acx1326","1","6110b1dcbb626d41122cb7bd","25","01/1996","single","English","French, Italian","Female","White or Caucasian","No","Undergraduate degree","Yes, Graduate studies","N/A","N/A","N/A","9","0","6","1","0","0.4166666900000001","stim/T050.jpg","76","76","0.44999998199999997","3","1","3","","2","3","4","3","3","1","2","3","1","1","1","2","4","5","1","3","5","1","5","2","4","4","0","4","3","3","3","3","4","5","3","3","3","1","3","3","4","3","4","4","3","3","3","3","3","1","3","3","4","4","1","2","3","3","3","5","5","3","3","3","2","agree","null","","","","","","","","stim/H120.jpg","null","","",""
"html-keyboard-response","45","360496","0.0-11.0-1.5","nvqg8010acx1326","1","6110b1dcbb626d41122cb7bd","25","01/1996","single","English","French, Italian","Female","White or Caucasian","No","Undergraduate degree","Yes, Graduate studies","N/A","N/A","N/A","9","0","6","1","0","0.4166666900000001","stim/T050.jpg","76","76","0.44999998199999997","3","1","3","","2","3","4","3","3","1","2","3","1","1","1","2","4","5","1","3","5","1","5","2","4","4","0","4","3","3","3","3","4","5","3","3","3","1","3","3","4","3","4","4","3","3","3","3","3","1","3","3","4","4","1","2","3","3","3","5","5","3","3","3","2","agree","511","","","","","","","","<div style=""font-size:60px;"">?</div>","76","6","1","0.8"
"image-keyboard-response","46","361507","0.0-11.0-0.6","nvqg8010acx1326","1","6110b1dcbb626d41122cb7bd","25","01/1996","single","English","French, Italian","Female","White or Caucasian","No","Undergraduate degree","Yes, Graduate studies","N/A","N/A","N/A","9","0","6","1","0","0.4166666900000001","stim/T050.jpg","76","76","0.44999998199999997","3","1","3","","2","3","4","3","3","1","2","3","1","1","1","2","4","5","1","3","5","1","5","2","4","4","0","4","3","3","3","3","4","5","3","3","3","1","3","3","4","3","4","4","3","3","3","3","3","1","3","3","4","4","1","2","3","3","3","5","5","3","3","3","2","agree","null","","","","","","","","stim/T100.jpg","null","","",""
"html-keyboard-response","47","362136","0.0-11.0-1.6","nvqg8010acx1326","1","6110b1dcbb626d41122cb7bd","25","01/1996","single","English","French, Italian","Female","White or Caucasian","No","Undergraduate degree","Yes, Graduate studies","N/A","N/A","N/A","9","0","6","1","0","0.4166666900000001","stim/T050.jpg","76","76","0.44999998199999997","3","1","3","","2","3","4","3","3","1","2","3","1","1","1","2","4","5","1","3","5","1","5","2","4","4","0","4","3","3","3","3","4","5","3","3","3","1","3","3","4","3","4","4","3","3","3","3","3","1","3","3","4","4","1","2","3","3","3","5","5","3","3","3","2","agree","627.3000000119209","","","","","","","","<div style=""font-size:60px;"">?</div>","76","7","1","0.8"
"image-keyboard-response","48","363145","0.0-11.0-0.7","nvqg8010acx1326","1","6110b1dcbb626d41122cb7bd","25","01/1996","single","English","French, Italian","Female","White or Caucasian","No","Undergraduate degree","Yes, Graduate studies","N/A","N/A","N/A","9","0","6","1","0","0.4166666900000001","stim/T050.jpg","76","76","0.44999998199999997","3","1","3","","2","3","4","3","3","1","2","3","1","1","1","2","4","5","1","3","5","1","5","2","4","4","0","4","3","3","3","3","4","5","3","3","3","1","3","3","4","3","4","4","3","3","3","3","3","1","3","3","4","4","1","2","3","3","3","5","5","3","3","3","2","agree","null","","","","","","","","stim/H220.jpg","null","","",""
"html-keyboard-response","49","363591","0.0-11.0-1.7","nvqg8010acx1326","1","6110b1dcbb626d41122cb7bd","25","01/1996","single","English","French, Italian","Female","White or Caucasian","No","Undergraduate degree","Yes, Graduate studies","N/A","N/A","N/A","9","0","6","1","0","0.4166666900000001","stim/T050.jpg","76","76","0.44999998199999997","3","1","3","","2","3","4","3","3","1","2","3","1","1","1","2","4","5","1","3","5","1","5","2","4","4","0","4","3","3","3","3","4","5","3","3","3","1","3","3","4","3","4","4","3","3","3","3","3","1","3","3","4","4","1","2","3","3","3","5","5","3","3","3","2","agree","444.70000000298023","","","","","","","","<div style=""font-size:60px;"">?</div>","65","8","1","0.8"
"image-keyboard-response","50","364598","0.0-11.0-0.8","nvqg8010acx1326","1","6110b1dcbb626d41122cb7bd","25","01/1996","single","English","French, Italian","Female","White or Caucasian","No","Undergraduate degree","Yes, Graduate studies","N/A","N/A","N/A","9","0","6","1","0","0.4166666900000001","stim/T050.jpg","76","76","0.44999998199999997","3","1","3","","2","3","4","3","3","1","2","3","1","1","1","2","4","5","1","3","5","1","5","2","4","4","0","4","3","3","3","3","4","5","3","3","3","1","3","3","4","3","4","4","3","3","3","3","3","1","3","3","4","4","1","2","3","3","3","5","5","3","3","3","2","agree","null","","","","","","","","stim/H070.jpg","null","","",""
"html-keyboard-response","51","364975","0.0-11.0-1.8","nvqg8010acx1326","1","6110b1dcbb626d41122cb7bd","25","01/1996","single","English","French, Italian","Female","White or Caucasian","No","Undergraduate degree","Yes, Graduate studies","N/A","N/A","N/A","9","0","6","1","0","0.4166666900000001","stim/T050.jpg","76","76","0.44999998199999997","3","1","3","","2","3","4","3","3","1","2","3","1","1","1","2","4","5","1","3","5","1","5","2","4","4","0","4","3","3","3","3","4","5","3","3","3","1","3","3","4","3","4","4","3","3","3","3","3","1","3","3","4","4","1","2","3","3","3","5","5","3","3","3","2","agree","375.5","","","","","","","","<div style=""font-size:60px;"">?</div>","76","9","1","0.8"
"image-keyboard-response","52","365984","0.0-11.0-0.9","nvqg8010acx1326","1","6110b1dcbb626d41122cb7bd","25","01/1996","single","English","French, Italian","Female","White or Caucasian","No","Undergraduate degree","Yes, Graduate studies","N/A","N/A","N/A","9","0","6","1","0","0.4166666900000001","stim/T050.jpg","76","76","0.44999998199999997","3","1","3","","2","3","4","3","3","1","2","3","1","1","1","2","4","5","1","3","5","1","5","2","4","4","0","4","3","3","3","3","4","5","3","3","3","1","3","3","4","3","4","4","3","3","3","3","3","1","3","3","4","4","1","2","3","3","3","5","5","3","3","3","2","agree","null","","","","","","","","stim/H270.jpg","null","","",""
"html-keyboard-response","53","366032","0.0-11.0-1.9","nvqg8010acx1326","1","6110b1dcbb626d41122cb7bd","25","01/1996","single","English","French, Italian","Female","White or Caucasian","No","Undergraduate degree","Yes, Graduate studies","N/A","N/A","N/A","9","0","6","1","0","0.4166666900000001","stim/T050.jpg","76","76","0.44999998199999997","3","1","3","","2","3","4","3","3","1","2","3","1","1","1","2","4","5","1","3","5","1","5","2","4","4","0","4","3","3","3","3","4","5","3","3","3","1","3","3","4","3","4","4","3","3","3","3","3","1","3","3","4","4","1","2","3","3","3","5","5","3","3","3","2","agree","46.1000000089407","","","","","","","","<div style=""font-size:60px;"">?</div>","65","10","1","0.8"
"image-keyboard-response","54","367044","0.0-11.0-0.10","nvqg8010acx1326","1","6110b1dcbb626d41122cb7bd","25","01/1996","single","English","French, Italian","Female","White or Caucasian","No","Undergraduate degree","Yes, Graduate studies","N/A","N/A","N/A","9","0","6","1","0","0.4166666900000001","stim/T050.jpg","76","76","0.44999998199999997","3","1","3","","2","3","4","3","3","1","2","3","1","1","1","2","4","5","1","3","5","1","5","2","4","4","0","4","3","3","3","3","4","5","3","3","3","1","3","3","4","3","4","4","3","3","3","3","3","1","3","3","4","4","1","2","3","3","3","5","5","3","3","3","2","agree","null","","","","","","","","stim/H030.jpg","null","","",""
"html-keyboard-response","55","367227","0.0-11.0-1.10","nvqg8010acx1326","1","6110b1dcbb626d41122cb7bd","25","01/1996","single","English","French, Italian","Female","White or Caucasian","No","Undergraduate degree","Yes, Graduate studies","N/A","N/A","N/A","9","0","6","1","0","0.4166666900000001","stim/T050.jpg","76","76","0.44999998199999997","3","1","3","","2","3","4","3","3","1","2","3","1","1","1","2","4","5","1","3","5","1","5","2","4","4","0","4","3","3","3","3","4","5","3","3","3","1","3","3","4","3","4","4","3","3","3","3","3","1","3","3","4","4","1","2","3","3","3","5","5","3","3","3","2","agree","181.29999999701977","","","","","","","","<div style=""font-size:60px;"">?</div>","76","11","1","0.8"
"image-keyboard-response","56","368238","0.0-11.0-0.11","nvqg8010acx1326","1","6110b1dcbb626d41122cb7bd","25","01/1996","single","English","French, Italian","Female","White or Caucasian","No","Undergraduate degree","Yes, Graduate studies","N/A","N/A","N/A","9","0","6","1","0","0.4166666900000001","stim/T050.jpg","76","76","0.44999998199999997","3","1","3","","2","3","4","3","3","1","2","3","1","1","1","2","4","5","1","3","5","1","5","2","4","4","0","4","3","3","3","3","4","5","3","3","3","1","3","3","4","3","4","4","3","3","3","3","3","1","3","3","4","4","1","2","3","3","3","5","5","3","3","3","2","agree","null","","","","","","","","stim/H120.jpg","null","","",""
"html-keyboard-response","57","368685","0.0-11.0-1.11","nvqg8010acx1326","1","6110b1dcbb626d41122cb7bd","25","01/1996","single","English","French, Italian","Female","White or Caucasian","No","Undergraduate degree","Yes, Graduate studies","N/A","N/A","N/A","9","0","6","1","0","0.4166666900000001","stim/T050.jpg","76","76","0.44999998199999997","3","1","3","","2","3","4","3","3","1","2","3","1","1","1","2","4","5","1","3","5","1","5","2","4","4","0","4","3","3","3","3","4","5","3","3","3","1","3","3","4","3","4","4","3","3","3","3","3","1","3","3","4","4","1","2","3","3","3","5","5","3","3","3","2","agree","445.20000000298023","","","","","","","","<div style=""font-size:60px;"">?</div>","76","12","1","0.8"
"image-keyboard-response","58","369699","0.0-11.0-0.12","nvqg8010acx1326","1","6110b1dcbb626d41122cb7bd","25","01/1996","single","English","French, Italian","Female","White or Caucasian","No","Undergraduate degree","Yes, Graduate studies","N/A","N/A","N/A","9","0","6","1","0","0.4166666900000001","stim/T050.jpg","76","76","0.44999998199999997","3","1","3","","2","3","4","3","3","1","2","3","1","1","1","2","4","5","1","3","5","1","5","2","4","4","0","4","3","3","3","3","4","5","3","3","3","1","3","3","4","3","4","4","3","3","3","3","3","1","3","3","4","4","1","2","3","3","3","5","5","3","3","3","2","agree","null","","","","","","","","stim/H270.jpg","null","","",""
"html-keyboard-response","59","369844","0.0-11.0-1.12","nvqg8010acx1326","1","6110b1dcbb626d41122cb7bd","25","01/1996","single","English","French, Italian","Female","White or Caucasian","No","Undergraduate degree","Yes, Graduate studies","N/A","N/A","N/A","9","0","6","1","0","0.4166666900000001","stim/T050.jpg","76","76","0.44999998199999997","3","1","3","","2","3","4","3","3","1","2","3","1","1","1","2","4","5","1","3","5","1","5","2","4","4","0","4","3","3","3","3","4","5","3","3","3","1","3","3","4","3","4","4","3","3","3","3","3","1","3","3","4","4","1","2","3","3","3","5","5","3","3","3","2","agree","143.70000000298023","","","","","","","","<div style=""font-size:60px;"">?</div>","65","13","1","0.8"
"image-keyboard-response","60","370853","0.0-11.0-0.13","nvqg8010acx1326","1","6110b1dcbb626d41122cb7bd","25","01/1996","single","English","French, Italian","Female","White or Caucasian","No","Undergraduate degree","Yes, Graduate studies","N/A","N/A","N/A","9","0","6","1","0","0.4166666900000001","stim/T050.jpg","76","76","0.44999998199999997","3","1","3","","2","3","4","3","3","1","2","3","1","1","1","2","4","5","1","3","5","1","5","2","4","4","0","4","3","3","3","3","4","5","3","3","3","1","3","3","4","3","4","4","3","3","3","3","3","1","3","3","4","4","1","2","3","3","3","5","5","3","3","3","2","agree","null","","","","","","","","stim/H240.jpg","null","","",""
"html-keyboard-response","61","370909","0.0-11.0-1.13","nvqg8010acx1326","1","6110b1dcbb626d41122cb7bd","25","01/1996","single","English","French, Italian","Female","White or Caucasian","No","Undergraduate degree","Yes, Graduate studies","N/A","N/A","N/A","9","0","6","1","0","0.4166666900000001","stim/T050.jpg","76","76","0.44999998199999997","3","1","3","","2","3","4","3","3","1","2","3","1","1","1","2","4","5","1","3","5","1","5","2","4","4","0","4","3","3","3","3","4","5","3","3","3","1","3","3","4","3","4","4","3","3","3","3","3","1","3","3","4","4","1","2","3","3","3","5","5","3","3","3","2","agree","54.3999999910593","","","","","","","","<div style=""font-size:60px;"">?</div>","65","14","1","0.8"
"image-keyboard-response","62","371915","0.0-11.0-0.14","nvqg8010acx1326","1","6110b1dcbb626d41122cb7bd","25","01/1996","single","English","French, Italian","Female","White or Caucasian","No","Undergraduate degree","Yes, Graduate studies","N/A","N/A","N/A","9","0","6","1","0","0.4166666900000001","stim/T050.jpg","76","76","0.44999998199999997","3","1","3","","2","3","4","3","3","1","2","3","1","1","1","2","4","5","1","3","5","1","5","2","4","4","0","4","3","3","3","3","4","5","3","3","3","1","3","3","4","3","4","4","3","3","3","3","3","1","3","3","4","4","1","2","3","3","3","5","5","3","3","3","2","agree","null","","","","","","","","stim/T270.jpg","null","","",""
"html-keyboard-response","63","372438","0.0-11.0-1.14","nvqg8010acx1326","1","6110b1dcbb626d41122cb7bd","25","01/1996","single","English","French, Italian","Female","White or Caucasian","No","Undergraduate degree","Yes, Graduate studies","N/A","N/A","N/A","9","0","6","1","0","0.4166666900000001","stim/T050.jpg","76","76","0.44999998199999997","3","1","3","","2","3","4","3","3","1","2","3","1","1","1","2","4","5","1","3","5","1","5","2","4","4","0","4","3","3","3","3","4","5","3","3","3","1","3","3","4","3","4","4","3","3","3","3","3","1","3","3","4","4","1","2","3","3","3","5","5","3","3","3","2","agree","521.6999999880791","","","","","","","","<div style=""font-size:60px;"">?</div>","65","15","1","0.8"
"image-keyboard-response","64","373452","0.0-11.0-0.15","nvqg8010acx1326","1","6110b1dcbb626d41122cb7bd","25","01/1996","single","English","French, Italian","Female","White or Caucasian","No","Undergraduate degree","Yes, Graduate studies","N/A","N/A","N/A","9","0","6","1","0","0.4166666900000001","stim/T050.jpg","76","76","0.44999998199999997","3","1","3","","2","3","4","3","3","1","2","3","1","1","1","2","4","5","1","3","5","1","5","2","4","4","0","4","3","3","3","3","4","5","3","3","3","1","3","3","4","3","4","4","3","3","3","3","3","1","3","3","4","4","1","2","3","3","3","5","5","3","3","3","2","agree","null","","","","","","","","stim/H220.jpg","null","","",""
"html-keyboard-response","65","373691","0.0-11.0-1.15","nvqg8010acx1326","1","6110b1dcbb626d41122cb7bd","25","01/1996","single","English","French, Italian","Female","White or Caucasian","No","Undergraduate degree","Yes, Graduate studies","N/A","N/A","N/A","9","0","6","1","0","0.4166666900000001","stim/T050.jpg","76","76","0.44999998199999997","3","1","3","","2","3","4","3","3","1","2","3","1","1","1","2","4","5","1","3","5","1","5","2","4","4","0","4","3","3","3","3","4","5","3","3","3","1","3","3","4","3","4","4","3","3","3","3","3","1","3","3","4","4","1","2","3","3","3","5","5","3","3","3","2","agree","238.29999999701977","","","","","","","","<div style=""font-size:60px;"">?</div>","65","16","1","0.8"
"image-keyboard-response","66","374706","0.0-11.0-0.16","nvqg8010acx1326","1","6110b1dcbb626d41122cb7bd","25","01/1996","single","English","French, Italian","Female","White or Caucasian","No","Undergraduate degree","Yes, Graduate studies","N/A","N/A","N/A","9","0","6","1","0","0.4166666900000001","stim/T050.jpg","76","76","0.44999998199999997","3","1","3","","2","3","4","3","3","1","2","3","1","1","1","2","4","5","1","3","5","1","5","2","4","4","0","4","3","3","3","3","4","5","3","3","3","1","3","3","4","3","4","4","3","3","3","3","3","1","3","3","4","4","1","2","3","3","3","5","5","3","3","3","2","agree","null","","","","","","","","stim/H170.jpg","null","","",""
"html-keyboard-response","67","374965","0.0-11.0-1.16","nvqg8010acx1326","1","6110b1dcbb626d41122cb7bd","25","01/1996","single","English","French, Italian","Female","White or Caucasian","No","Undergraduate degree","Yes, Graduate studies","N/A","N/A","N/A","9","0","6","1","0","0.4166666900000001","stim/T050.jpg","76","76","0.44999998199999997","3","1","3","","2","3","4","3","3","1","2","3","1","1","1","2","4","5","1","3","5","1","5","2","4","4","0","4","3","3","3","3","4","5","3","3","3","1","3","3","4","3","4","4","3","3","3","3","3","1","3","3","4","4","1","2","3","3","3","5","5","3","3","3","2","agree","257.70000000298023","","","","","","","","<div style=""font-size:60px;"">?</div>","65","17","1","0.8"
"image-keyboard-response","68","375974","0.0-11.0-0.17","nvqg8010acx1326","1","6110b1dcbb626d41122cb7bd","25","01/1996","single","English","French, Italian","Female","White or Caucasian","No","Undergraduate degree","Yes, Graduate studies","N/A","N/A","N/A","9","0","6","1","0","0.4166666900000001","stim/T050.jpg","76","76","0.44999998199999997","3","1","3","","2","3","4","3","3","1","2","3","1","1","1","2","4","5","1","3","5","1","5","2","4","4","0","4","3","3","3","3","4","5","3","3","3","1","3","3","4","3","4","4","3","3","3","3","3","1","3","3","4","4","1","2","3","3","3","5","5","3","3","3","2","agree","null","","","","","","","","stim/T120.jpg","null","","",""
"html-keyboard-response","69","376871","0.0-11.0-1.17","nvqg8010acx1326","1","6110b1dcbb626d41122cb7bd","25","01/1996","single","English","French, Italian","Female","White or Caucasian","No","Undergraduate degree","Yes, Graduate studies","N/A","N/A","N/A","9","0","6","1","0","0.4166666900000001","stim/T050.jpg","76","76","0.44999998199999997","3","1","3","","2","3","4","3","3","1","2","3","1","1","1","2","4","5","1","3","5","1","5","2","4","4","0","4","3","3","3","3","4","5","3","3","3","1","3","3","4","3","4","4","3","3","3","3","3","1","3","3","4","4","1","2","3","3","3","5","5","3","3","3","2","agree","895.4000000059605","","","","","","","","<div style=""font-size:60px;"">?</div>","76","18","1","0.8"
"image-keyboard-response","70","377885","0.0-11.0-0.18","nvqg8010acx1326","1","6110b1dcbb626d41122cb7bd","25","01/1996","single","English","French, Italian","Female","White or Caucasian","No","Undergraduate degree","Yes, Graduate studies","N/A","N/A","N/A","9","0","6","1","0","0.4166666900000001","stim/T050.jpg","76","76","0.44999998199999997","3","1","3","","2","3","4","3","3","1","2","3","1","1","1","2","4","5","1","3","5","1","5","2","4","4","0","4","3","3","3","3","4","5","3","3","3","1","3","3","4","3","4","4","3","3","3","3","3","1","3","3","4","4","1","2","3","3","3","5","5","3","3","3","2","agree","null","","","","","","","","stim/H050.jpg","null","","",""
"html-keyboard-response","71","378238","0.0-11.0-1.18","nvqg8010acx1326","1","6110b1dcbb626d41122cb7bd","25","01/1996","single","English","French, Italian","Female","White or Caucasian","No","Undergraduate degree","Yes, Graduate studies","N/A","N/A","N/A","9","0","6","1","0","0.4166666900000001","stim/T050.jpg","76","76","0.44999998199999997","3","1","3","","2","3","4","3","3","1","2","3","1","1","1","2","4","5","1","3","5","1","5","2","4","4","0","4","3","3","3","3","4","5","3","3","3","1","3","3","4","3","4","4","3","3","3","3","3","1","3","3","4","4","1","2","3","3","3","5","5","3","3","3","2","agree","352.09999999403954","","","","","","","","<div style=""font-size:60px;"">?</div>","76","19","1","0.8"
"image-keyboard-response","72","379253","0.0-11.0-0.19","nvqg8010acx1326","1","6110b1dcbb626d41122cb7bd","25","01/1996","single","English","French, Italian","Female","White or Caucasian","No","Undergraduate degree","Yes, Graduate studies","N/A","N/A","N/A","9","0","6","1","0","0.4166666900000001","stim/T050.jpg","76","76","0.44999998199999997","3","1","3","","2","3","4","3","3","1","2","3","1","1","1","2","4","5","1","3","5","1","5","2","4","4","0","4","3","3","3","3","4","5","3","3","3","1","3","3","4","3","4","4","3","3","3","3","3","1","3","3","4","4","1","2","3","3","3","5","5","3","3","3","2","agree","null","","","","","","","","stim/H020.jpg","null","","",""
"html-keyboard-response","73","379302","0.0-11.0-1.19","nvqg8010acx1326","1","6110b1dcbb626d41122cb7bd","25","01/1996","single","English","French, Italian","Female","White or Caucasian","No","Undergraduate degree","Yes, Graduate studies","N/A","N/A","N/A","9","0","6","1","0","0.4166666900000001","stim/T050.jpg","76","76","0.44999998199999997","3","1","3","","2","3","4","3","3","1","2","3","1","1","1","2","4","5","1","3","5","1","5","2","4","4","0","4","3","3","3","3","4","5","3","3","3","1","3","3","4","3","4","4","3","3","3","3","3","1","3","3","4","4","1","2","3","3","3","5","5","3","3","3","2","agree","47.20000000298023","","","","","","","","<div style=""font-size:60px;"">?</div>","76","20","1","0.8"
"image-keyboard-response","74","380312","0.0-11.0-0.20","nvqg8010acx1326","1","6110b1dcbb626d41122cb7bd","25","01/1996","single","English","French, Italian","Female","White or Caucasian","No","Undergraduate degree","Yes, Graduate studies","N/A","N/A","N/A","9","0","6","1","0","0.4166666900000001","stim/T050.jpg","76","76","0.44999998199999997","3","1","3","","2","3","4","3","3","1","2","3","1","1","1","2","4","5","1","3","5","1","5","2","4","4","0","4","3","3","3","3","4","5","3","3","3","1","3","3","4","3","4","4","3","3","3","3","3","1","3","3","4","4","1","2","3","3","3","5","5","3","3","3","2","agree","null","","","","","","","","stim/H240.jpg","null","","",""
"html-keyboard-response","75","380373","0.0-11.0-1.20","nvqg8010acx1326","1","6110b1dcbb626d41122cb7bd","25","01/1996","single","English","French, Italian","Female","White or Caucasian","No","Undergraduate degree","Yes, Graduate studies","N/A","N/A","N/A","9","0","6","1","0","0.4166666900000001","stim/T050.jpg","76","76","0.44999998199999997","3","1","3","","2","3","4","3","3","1","2","3","1","1","1","2","4","5","1","3","5","1","5","2","4","4","0","4","3","3","3","3","4","5","3","3","3","1","3","3","4","3","4","4","3","3","3","3","3","1","3","3","4","4","1","2","3","3","3","5","5","3","3","3","2","agree","60.3999999910593","","","","","","","","<div style=""font-size:60px;"">?</div>","65","21","1","0.8"
"image-keyboard-response","76","381381","0.0-11.0-0.21","nvqg8010acx1326","1","6110b1dcbb626d41122cb7bd","25","01/1996","single","English","French, Italian","Female","White or Caucasian","No","Undergraduate degree","Yes, Graduate studies","N/A","N/A","N/A","9","0","6","1","0","0.4166666900000001","stim/T050.jpg","76","76","0.44999998199999997","3","1","3","","2","3","4","3","3","1","2","3","1","1","1","2","4","5","1","3","5","1","5","2","4","4","0","4","3","3","3","3","4","5","3","3","3","1","3","3","4","3","4","4","3","3","3","3","3","1","3","3","4","4","1","2","3","3","3","5","5","3","3","3","2","agree","null","","","","","","","","stim/H140.jpg","null","","",""
"html-keyboard-response","77","381453","0.0-11.0-1.21","nvqg8010acx1326","1","6110b1dcbb626d41122cb7bd","25","01/1996","single","English","French, Italian","Female","White or Caucasian","No","Undergraduate degree","Yes, Graduate studies","N/A","N/A","N/A","9","0","6","1","0","0.4166666900000001","stim/T050.jpg","76","76","0.44999998199999997","3","1","3","","2","3","4","3","3","1","2","3","1","1","1","2","4","5","1","3","5","1","5","2","4","4","0","4","3","3","3","3","4","5","3","3","3","1","3","3","4","3","4","4","3","3","3","3","3","1","3","3","4","4","1","2","3","3","3","5","5","3","3","3","2","agree","70.70000000298023","","","","","","","","<div style=""font-size:60px;"">?</div>","65","22","1","0.8"
"image-keyboard-response","78","382469","0.0-11.0-0.22","nvqg8010acx1326","1","6110b1dcbb626d41122cb7bd","25","01/1996","single","English","French, Italian","Female","White or Caucasian","No","Undergraduate degree","Yes, Graduate studies","N/A","N/A","N/A","9","0","6","1","0","0.4166666900000001","stim/T050.jpg","76","76","0.44999998199999997","3","1","3","","2","3","4","3","3","1","2","3","1","1","1","2","4","5","1","3","5","1","5","2","4","4","0","4","3","3","3","3","4","5","3","3","3","1","3","3","4","3","4","4","3","3","3","3","3","1","3","3","4","4","1","2","3","3","3","5","5","3","3","3","2","agree","null","","","","","","","","stim/H280.jpg","null","","",""
"html-keyboard-response","79","382544","0.0-11.0-1.22","nvqg8010acx1326","1","6110b1dcbb626d41122cb7bd","25","01/1996","single","English","French, Italian","Female","White or Caucasian","No","Undergraduate degree","Yes, Graduate studies","N/A","N/A","N/A","9","0","6","1","0","0.4166666900000001","stim/T050.jpg","76","76","0.44999998199999997","3","1","3","","2","3","4","3","3","1","2","3","1","1","1","2","4","5","1","3","5","1","5","2","4","4","0","4","3","3","3","3","4","5","3","3","3","1","3","3","4","3","4","4","3","3","3","3","3","1","3","3","4","4","1","2","3","3","3","5","5","3","3","3","2","agree","74.29999999701977","","","","","","","","<div style=""font-size:60px;"">?</div>","65","23","1","0.8"
"image-keyboard-response","80","383551","0.0-11.0-0.23","nvqg8010acx1326","1","6110b1dcbb626d41122cb7bd","25","01/1996","single","English","French, Italian","Female","White or Caucasian","No","Undergraduate degree","Yes, Graduate studies","N/A","N/A","N/A","9","0","6","1","0","0.4166666900000001","stim/T050.jpg","76","76","0.44999998199999997","3","1","3","","2","3","4","3","3","1","2","3","1","1","1","2","4","5","1","3","5","1","5","2","4","4","0","4","3","3","3","3","4","5","3","3","3","1","3","3","4","3","4","4","3","3","3","3","3","1","3","3","4","4","1","2","3","3","3","5","5","3","3","3","2","agree","null","","","","","","","","stim/H060.jpg","null","","",""
"html-keyboard-response","81","383939","0.0-11.0-1.23","nvqg8010acx1326","1","6110b1dcbb626d41122cb7bd","25","01/1996","single","English","French, Italian","Female","White or Caucasian","No","Undergraduate degree","Yes, Graduate studies","N/A","N/A","N/A","9","0","6","1","0","0.4166666900000001","stim/T050.jpg","76","76","0.44999998199999997","3","1","3","","2","3","4","3","3","1","2","3","1","1","1","2","4","5","1","3","5","1","5","2","4","4","0","4","3","3","3","3","4","5","3","3","3","1","3","3","4","3","4","4","3","3","3","3","3","1","3","3","4","4","1","2","3","3","3","5","5","3","3","3","2","agree","387.29999999701977","","","","","","","","<div style=""font-size:60px;"">?</div>","76","24","1","0.8"
"image-keyboard-response","82","384953","0.0-11.0-0.24","nvqg8010acx1326","1","6110b1dcbb626d41122cb7bd","25","01/1996","single","English","French, Italian","Female","White or Caucasian","No","Undergraduate degree","Yes, Graduate studies","N/A","N/A","N/A","9","0","6","1","0","0.4166666900000001","stim/T050.jpg","76","76","0.44999998199999997","3","1","3","","2","3","4","3","3","1","2","3","1","1","1","2","4","5","1","3","5","1","5","2","4","4","0","4","3","3","3","3","4","5","3","3","3","1","3","3","4","3","4","4","3","3","3","3","3","1","3","3","4","4","1","2","3","3","3","5","5","3","3","3","2","agree","null","","","","","","","","stim/H030.jpg","null","","",""
"html-keyboard-response","83","385033","0.0-11.0-1.24","nvqg8010acx1326","1","6110b1dcbb626d41122cb7bd","25","01/1996","single","English","French, Italian","Female","White or Caucasian","No","Undergraduate degree","Yes, Graduate studies","N/A","N/A","N/A","9","0","6","1","0","0.4166666900000001","stim/T050.jpg","76","76","0.44999998199999997","3","1","3","","2","3","4","3","3","1","2","3","1","1","1","2","4","5","1","3","5","1","5","2","4","4","0","4","3","3","3","3","4","5","3","3","3","1","3","3","4","3","4","4","3","3","3","3","3","1","3","3","4","4","1","2","3","3","3","5","5","3","3","3","2","agree","79","","","","","","","","<div style=""font-size:60px;"">?</div>","76","25","1","0.8"
"image-keyboard-response","84","386046","0.0-11.0-0.25","nvqg8010acx1326","1","6110b1dcbb626d41122cb7bd","25","01/1996","single","English","French, Italian","Female","White or Caucasian","No","Undergraduate degree","Yes, Graduate studies","N/A","N/A","N/A","9","0","6","1","0","0.4166666900000001","stim/T050.jpg","76","76","0.44999998199999997","3","1","3","","2","3","4","3","3","1","2","3","1","1","1","2","4","5","1","3","5","1","5","2","4","4","0","4","3","3","3","3","4","5","3","3","3","1","3","3","4","3","4","4","3","3","3","3","3","1","3","3","4","4","1","2","3","3","3","5","5","3","3","3","2","agree","null","","","","","","","","stim/H300.jpg","null","","",""
"html-keyboard-response","85","386265","0.0-11.0-1.25","nvqg8010acx1326","1","6110b1dcbb626d41122cb7bd","25","01/1996","single","English","French, Italian","Female","White or Caucasian","No","Undergraduate degree","Yes, Graduate studies","N/A","N/A","N/A","9","0","6","1","0","0.4166666900000001","stim/T050.jpg","76","76","0.44999998199999997","3","1","3","","2","3","4","3","3","1","2","3","1","1","1","2","4","5","1","3","5","1","5","2","4","4","0","4","3","3","3","3","4","5","3","3","3","1","3","3","4","3","4","4","3","3","3","3","3","1","3","3","4","4","1","2","3","3","3","5","5","3","3","3","2","agree","217.79999999701977","","","","","","","","<div style=""font-size:60px;"">?</div>","65","26","1","0.8"
"image-keyboard-response","86","387279","0.0-11.0-0.26","nvqg8010acx1326","1","6110b1dcbb626d41122cb7bd","25","01/1996","single","English","French, Italian","Female","White or Caucasian","No","Undergraduate degree","Yes, Graduate studies","N/A","N/A","N/A","9","0","6","1","0","0.4166666900000001","stim/T050.jpg","76","76","0.44999998199999997","3","1","3","","2","3","4","3","3","1","2","3","1","1","1","2","4","5","1","3","5","1","5","2","4","4","0","4","3","3","3","3","4","5","3","3","3","1","3","3","4","3","4","4","3","3","3","3","3","1","3","3","4","4","1","2","3","3","3","5","5","3","3","3","2","agree","null","","","","","","","","stim/H170.jpg","null","","",""
"html-keyboard-response","87","387809","0.0-11.0-1.26","nvqg8010acx1326","1","6110b1dcbb626d41122cb7bd","25","01/1996","single","English","French, Italian","Female","White or Caucasian","No","Undergraduate degree","Yes, Graduate studies","N/A","N/A","N/A","9","0","6","1","0","0.4166666900000001","stim/T050.jpg","76","76","0.44999998199999997","3","1","3","","2","3","4","3","3","1","2","3","1","1","1","2","4","5","1","3","5","1","5","2","4","4","0","4","3","3","3","3","4","5","3","3","3","1","3","3","4","3","4","4","3","3","3","3","3","1","3","3","4","4","1","2","3","3","3","5","5","3","3","3","2","agree","527.9000000059605","","","","","","","","<div style=""font-size:60px;"">?</div>","65","27","1","0.8"
"image-keyboard-response","88","388824","0.0-11.0-0.27","nvqg8010acx1326","1","6110b1dcbb626d41122cb7bd","25","01/1996","single","English","French, Italian","Female","White or Caucasian","No","Undergraduate degree","Yes, Graduate studies","N/A","N/A","N/A","9","0","6","1","0","0.4166666900000001","stim/T050.jpg","76","76","0.44999998199999997","3","1","3","","2","3","4","3","3","1","2","3","1","1","1","2","4","5","1","3","5","1","5","2","4","4","0","4","3","3","3","3","4","5","3","3","3","1","3","3","4","3","4","4","3","3","3","3","3","1","3","3","4","4","1","2","3","3","3","5","5","3","3","3","2","agree","null","","","","","","","","stim/T170.jpg","null","","",""
"html-keyboard-response","89","389352","0.0-11.0-1.27","nvqg8010acx1326","1","6110b1dcbb626d41122cb7bd","25","01/1996","single","English","French, Italian","Female","White or Caucasian","No","Undergraduate degree","Yes, Graduate studies","N/A","N/A","N/A","9","0","6","1","0","0.4166666900000001","stim/T050.jpg","76","76","0.44999998199999997","3","1","3","","2","3","4","3","3","1","2","3","1","1","1","2","4","5","1","3","5","1","5","2","4","4","0","4","3","3","3","3","4","5","3","3","3","1","3","3","4","3","4","4","3","3","3","3","3","1","3","3","4","4","1","2","3","3","3","5","5","3","3","3","2","agree","526.4000000059605","","","","","","","","<div style=""font-size:60px;"">?</div>","65","28","1","0.8"
"image-keyboard-response","90","390364","0.0-11.0-0.28","nvqg8010acx1326","1","6110b1dcbb626d41122cb7bd","25","01/1996","single","English","French, Italian","Female","White or Caucasian","No","Undergraduate degree","Yes, Graduate studies","N/A","N/A","N/A","9","0","6","1","0","0.4166666900000001","stim/T050.jpg","76","76","0.44999998199999997","3","1","3","","2","3","4","3","3","1","2","3","1","1","1","2","4","5","1","3","5","1","5","2","4","4","0","4","3","3","3","3","4","5","3","3","3","1","3","3","4","3","4","4","3","3","3","3","3","1","3","3","4","4","1","2","3","3","3","5","5","3","3","3","2","agree","null","","","","","","","","stim/H080.jpg","null","","",""
"html-keyboard-response","91","390648","0.0-11.0-1.28","nvqg8010acx1326","1","6110b1dcbb626d41122cb7bd","25","01/1996","single","English","French, Italian","Female","White or Caucasian","No","Undergraduate degree","Yes, Graduate studies","N/A","N/A","N/A","9","0","6","1","0","0.4166666900000001","stim/T050.jpg","76","76","0.44999998199999997","3","1","3","","2","3","4","3","3","1","2","3","1","1","1","2","4","5","1","3","5","1","5","2","4","4","0","4","3","3","3","3","4","5","3","3","3","1","3","3","4","3","4","4","3","3","3","3","3","1","3","3","4","4","1","2","3","3","3","5","5","3","3","3","2","agree","282.79999999701977","","","","","","","","<div style=""font-size:60px;"">?</div>","76","29","1","0.8"
"image-keyboard-response","92","391661","0.0-11.0-0.29","nvqg8010acx1326","1","6110b1dcbb626d41122cb7bd","25","01/1996","single","English","French, Italian","Female","White or Caucasian","No","Undergraduate degree","Yes, Graduate studies","N/A","N/A","N/A","9","0","6","1","0","0.4166666900000001","stim/T050.jpg","76","76","0.44999998199999997","3","1","3","","2","3","4","3","3","1","2","3","1","1","1","2","4","5","1","3","5","1","5","2","4","4","0","4","3","3","3","3","4","5","3","3","3","1","3","3","4","3","4","4","3","3","3","3","3","1","3","3","4","4","1","2","3","3","3","5","5","3","3","3","2","agree","null","","","","","","","","stim/H080.jpg","null","","",""
"html-keyboard-response","93","392149","0.0-11.0-1.29","nvqg8010acx1326","1","6110b1dcbb626d41122cb7bd","25","01/1996","single","English","French, Italian","Female","White or Caucasian","No","Undergraduate degree","Yes, Graduate studies","N/A","N/A","N/A","9","0","6","1","0","0.4166666900000001","stim/T050.jpg","76","76","0.44999998199999997","3","1","3","","2","3","4","3","3","1","2","3","1","1","1","2","4","5","1","3","5","1","5","2","4","4","0","4","3","3","3","3","4","5","3","3","3","1","3","3","4","3","4","4","3","3","3","3","3","1","3","3","4","4","1","2","3","3","3","5","5","3","3","3","2","agree","485.8999999910593","","","","","","","","<div style=""font-size:60px;"">?</div>","76","30","1","0.8"
"image-keyboard-response","94","393160","0.0-11.0-0.30","nvqg8010acx1326","1","6110b1dcbb626d41122cb7bd","25","01/1996","single","English","French, Italian","Female","White or Caucasian","No","Undergraduate degree","Yes, Graduate studies","N/A","N/A","N/A","9","0","6","1","0","0.4166666900000001","stim/T050.jpg","76","76","0.44999998199999997","3","1","3","","2","3","4","3","3","1","2","3","1","1","1","2","4","5","1","3","5","1","5","2","4","4","0","4","3","3","3","3","4","5","3","3","3","1","3","3","4","3","4","4","3","3","3","3","3","1","3","3","4","4","1","2","3","3","3","5","5","3","3","3","2","agree","null","","","","","","","","stim/H130.jpg","null","","",""
"html-keyboard-response","95","397383","0.0-11.0-1.30","nvqg8010acx1326","1","6110b1dcbb626d41122cb7bd","25","01/1996","single","English","French, Italian","Female","White or Caucasian","No","Undergraduate degree","Yes, Graduate studies","N/A","N/A","N/A","9","0","6","1","0","0.4166666900000001","stim/T050.jpg","76","76","0.44999998199999997","3","1","3","","2","3","4","3","3","1","2","3","1","1","1","2","4","5","1","3","5","1","5","2","4","4","0","4","3","3","3","3","4","5","3","3","3","1","3","3","4","3","4","4","3","3","3","3","3","1","3","3","4","4","1","2","3","3","3","5","5","3","3","3","2","agree","4221.600000008941","","","","","","","","<div style=""font-size:60px;"">?</div>","65","31","1","0.8"
"image-keyboard-response","96","398388","0.0-11.0-0.31","nvqg8010acx1326","1","6110b1dcbb626d41122cb7bd","25","01/1996","single","English","French, Italian","Female","White or Caucasian","No","Undergraduate degree","Yes, Graduate studies","N/A","N/A","N/A","9","0","6","1","0","0.4166666900000001","stim/T050.jpg","76","76","0.44999998199999997","3","1","3","","2","3","4","3","3","1","2","3","1","1","1","2","4","5","1","3","5","1","5","2","4","4","0","4","3","3","3","3","4","5","3","3","3","1","3","3","4","3","4","4","3","3","3","3","3","1","3","3","4","4","1","2","3","3","3","5","5","3","3","3","2","agree","null","","","","","","","","stim/T040.jpg","null","","",""
"html-keyboard-response","97","398664","0.0-11.0-1.31","nvqg8010acx1326","1","6110b1dcbb626d41122cb7bd","25","01/1996","single","English","French, Italian","Female","White or Caucasian","No","Undergraduate degree","Yes, Graduate studies","N/A","N/A","N/A","9","0","6","1","0","0.4166666900000001","stim/T050.jpg","76","76","0.44999998199999997","3","1","3","","2","3","4","3","3","1","2","3","1","1","1","2","4","5","1","3","5","1","5","2","4","4","0","4","3","3","3","3","4","5","3","3","3","1","3","3","4","3","4","4","3","3","3","3","3","1","3","3","4","4","1","2","3","3","3","5","5","3","3","3","2","agree","273.79999999701977","","","","","","","","<div style=""font-size:60px;"">?</div>","76","32","1","0.8"
"image-keyboard-response","98","399672","0.0-11.0-0.32","nvqg8010acx1326","1","6110b1dcbb626d41122cb7bd","25","01/1996","single","English","French, Italian","Female","White or Caucasian","No","Undergraduate degree","Yes, Graduate studies","N/A","N/A","N/A","9","0","6","1","0","0.4166666900000001","stim/T050.jpg","76","76","0.44999998199999997","3","1","3","","2","3","4","3","3","1","2","3","1","1","1","2","4","5","1","3","5","1","5","2","4","4","0","4","3","3","3","3","4","5","3","3","3","1","3","3","4","3","4","4","3","3","3","3","3","1","3","3","4","4","1","2","3","3","3","5","5","3","3","3","2","agree","null","","","","","","","","stim/H060.jpg","null","","",""
"html-keyboard-response","99","400045","0.0-11.0-1.32","nvqg8010acx1326","1","6110b1dcbb626d41122cb7bd","25","01/1996","single","English","French, Italian","Female","White or Caucasian","No","Undergraduate degree","Yes, Graduate studies","N/A","N/A","N/A","9","0","6","1","0","0.4166666900000001","stim/T050.jpg","76","76","0.44999998199999997","3","1","3","","2","3","4","3","3","1","2","3","1","1","1","2","4","5","1","3","5","1","5","2","4","4","0","4","3","3","3","3","4","5","3","3","3","1","3","3","4","3","4","4","3","3","3","3","3","1","3","3","4","4","1","2","3","3","3","5","5","3","3","3","2","agree","371.79999999701977","","","","","","","","<div style=""font-size:60px;"">?</div>","65","33","1","0.8"
"image-keyboard-response","100","401050","0.0-11.0-0.33","nvqg8010acx1326","1","6110b1dcbb626d41122cb7bd","25","01/1996","single","English","French, Italian","Female","White or Caucasian","No","Undergraduate degree","Yes, Graduate studies","N/A","N/A","N/A","9","0","6","1","0","0.4166666900000001","stim/T050.jpg","76","76","0.44999998199999997","3","1","3","","2","3","4","3","3","1","2","3","1","1","1","2","4","5","1","3","5","1","5","2","4","4","0","4","3","3","3","3","4","5","3","3","3","1","3","3","4","3","4","4","3","3","3","3","3","1","3","3","4","4","1","2","3","3","3","5","5","3","3","3","2","agree","null","","","","","","","","stim/H100.jpg","null","","",""
"html-keyboard-response","101","401800","0.0-11.0-1.33","nvqg8010acx1326","1","6110b1dcbb626d41122cb7bd","25","01/1996","single","English","French, Italian","Female","White or Caucasian","No","Undergraduate degree","Yes, Graduate studies","N/A","N/A","N/A","9","0","6","1","0","0.4166666900000001","stim/T050.jpg","76","76","0.44999998199999997","3","1","3","","2","3","4","3","3","1","2","3","1","1","1","2","4","5","1","3","5","1","5","2","4","4","0","4","3","3","3","3","4","5","3","3","3","1","3","3","4","3","4","4","3","3","3","3","3","1","3","3","4","4","1","2","3","3","3","5","5","3","3","3","2","agree","749","","","","","","","","<div style=""font-size:60px;"">?</div>","65","34","1","0.8"
"image-keyboard-response","102","402808","0.0-11.0-0.34","nvqg8010acx1326","1","6110b1dcbb626d41122cb7bd","25","01/1996","single","English","French, Italian","Female","White or Caucasian","No","Undergraduate degree","Yes, Graduate studies","N/A","N/A","N/A","9","0","6","1","0","0.4166666900000001","stim/T050.jpg","76","76","0.44999998199999997","3","1","3","","2","3","4","3","3","1","2","3","1","1","1","2","4","5","1","3","5","1","5","2","4","4","0","4","3","3","3","3","4","5","3","3","3","1","3","3","4","3","4","4","3","3","3","3","3","1","3","3","4","4","1","2","3","3","3","5","5","3","3","3","2","agree","null","","","","","","","","stim/H300.jpg","null","","",""
"html-keyboard-response","103","403113","0.0-11.0-1.34","nvqg8010acx1326","1","6110b1dcbb626d41122cb7bd","25","01/1996","single","English","French, Italian","Female","White or Caucasian","No","Undergraduate degree","Yes, Graduate studies","N/A","N/A","N/A","9","0","6","1","0","0.4166666900000001","stim/T050.jpg","76","76","0.44999998199999997","3","1","3","","2","3","4","3","3","1","2","3","1","1","1","2","4","5","1","3","5","1","5","2","4","4","0","4","3","3","3","3","4","5","3","3","3","1","3","3","4","3","4","4","3","3","3","3","3","1","3","3","4","4","1","2","3","3","3","5","5","3","3","3","2","agree","303.59999999403954","","","","","","","","<div style=""font-size:60px;"">?</div>","65","35","1","0.8"
"image-keyboard-response","104","404129","0.0-11.0-0.35","nvqg8010acx1326","1","6110b1dcbb626d41122cb7bd","25","01/1996","single","English","French, Italian","Female","White or Caucasian","No","Undergraduate degree","Yes, Graduate studies","N/A","N/A","N/A","9","0","6","1","0","0.4166666900000001","stim/T050.jpg","76","76","0.44999998199999997","3","1","3","","2","3","4","3","3","1","2","3","1","1","1","2","4","5","1","3","5","1","5","2","4","4","0","4","3","3","3","3","4","5","3","3","3","1","3","3","4","3","4","4","3","3","3","3","3","1","3","3","4","4","1","2","3","3","3","5","5","3","3","3","2","agree","null","","","","","","","","stim/H120.jpg","null","","",""
"html-keyboard-response","105","404402","0.0-11.0-1.35","nvqg8010acx1326","1","6110b1dcbb626d41122cb7bd","25","01/1996","single","English","French, Italian","Female","White or Caucasian","No","Undergraduate degree","Yes, Graduate studies","N/A","N/A","N/A","9","0","6","1","0","0.4166666900000001","stim/T050.jpg","76","76","0.44999998199999997","3","1","3","","2","3","4","3","3","1","2","3","1","1","1","2","4","5","1","3","5","1","5","2","4","4","0","4","3","3","3","3","4","5","3","3","3","1","3","3","4","3","4","4","3","3","3","3","3","1","3","3","4","4","1","2","3","3","3","5","5","3","3","3","2","agree","271.69999998807907","","","","","","","","<div style=""font-size:60px;"">?</div>","76","36","1","0.8"
"image-keyboard-response","106","405405","0.0-11.0-0.36","nvqg8010acx1326","1","6110b1dcbb626d41122cb7bd","25","01/1996","single","English","French, Italian","Female","White or Caucasian","No","Undergraduate degree","Yes, Graduate studies","N/A","N/A","N/A","9","0","6","1","0","0.4166666900000001","stim/T050.jpg","76","76","0.44999998199999997","3","1","3","","2","3","4","3","3","1","2","3","1","1","1","2","4","5","1","3","5","1","5","2","4","4","0","4","3","3","3","3","4","5","3","3","3","1","3","3","4","3","4","4","3","3","3","3","3","1","3","3","4","4","1","2","3","3","3","5","5","3","3","3","2","agree","null","","","","","","","","stim/H250.jpg","null","","",""
"html-keyboard-response","107","406347","0.0-11.0-1.36","nvqg8010acx1326","1","6110b1dcbb626d41122cb7bd","25","01/1996","single","English","French, Italian","Female","White or Caucasian","No","Undergraduate degree","Yes, Graduate studies","N/A","N/A","N/A","9","0","6","1","0","0.4166666900000001","stim/T050.jpg","76","76","0.44999998199999997","3","1","3","","2","3","4","3","3","1","2","3","1","1","1","2","4","5","1","3","5","1","5","2","4","4","0","4","3","3","3","3","4","5","3","3","3","1","3","3","4","3","4","4","3","3","3","3","3","1","3","3","4","4","1","2","3","3","3","5","5","3","3","3","2","agree","941.3000000119209","","","","","","","","<div style=""font-size:60px;"">?</div>","76","37","1","0.8"
"image-keyboard-response","108","407350","0.0-11.0-0.37","nvqg8010acx1326","1","6110b1dcbb626d41122cb7bd","25","01/1996","single","English","French, Italian","Female","White or Caucasian","No","Undergraduate degree","Yes, Graduate studies","N/A","N/A","N/A","9","0","6","1","0","0.4166666900000001","stim/T050.jpg","76","76","0.44999998199999997","3","1","3","","2","3","4","3","3","1","2","3","1","1","1","2","4","5","1","3","5","1","5","2","4","4","0","4","3","3","3","3","4","5","3","3","3","1","3","3","4","3","4","4","3","3","3","3","3","1","3","3","4","4","1","2","3","3","3","5","5","3","3","3","2","agree","null","","","","","","","","stim/T290.jpg","null","","",""
"html-keyboard-response","109","407708","0.0-11.0-1.37","nvqg8010acx1326","1","6110b1dcbb626d41122cb7bd","25","01/1996","single","English","French, Italian","Female","White or Caucasian","No","Undergraduate degree","Yes, Graduate studies","N/A","N/A","N/A","9","0","6","1","0","0.4166666900000001","stim/T050.jpg","76","76","0.44999998199999997","3","1","3","","2","3","4","3","3","1","2","3","1","1","1","2","4","5","1","3","5","1","5","2","4","4","0","4","3","3","3","3","4","5","3","3","3","1","3","3","4","3","4","4","3","3","3","3","3","1","3","3","4","4","1","2","3","3","3","5","5","3","3","3","2","agree","356.79999999701977","","","","","","","","<div style=""font-size:60px;"">?</div>","65","38","1","0.8"
"image-keyboard-response","110","408714","0.0-11.0-0.38","nvqg8010acx1326","1","6110b1dcbb626d41122cb7bd","25","01/1996","single","English","French, Italian","Female","White or Caucasian","No","Undergraduate degree","Yes, Graduate studies","N/A","N/A","N/A","9","0","6","1","0","0.4166666900000001","stim/T050.jpg","76","76","0.44999998199999997","3","1","3","","2","3","4","3","3","1","2","3","1","1","1","2","4","5","1","3","5","1","5","2","4","4","0","4","3","3","3","3","4","5","3","3","3","1","3","3","4","3","4","4","3","3","3","3","3","1","3","3","4","4","1","2","3","3","3","5","5","3","3","3","2","agree","null","","","","","","","","stim/H050.jpg","null","","",""
"html-keyboard-response","111","409005","0.0-11.0-1.38","nvqg8010acx1326","1","6110b1dcbb626d41122cb7bd","25","01/1996","single","English","French, Italian","Female","White or Caucasian","No","Undergraduate degree","Yes, Graduate studies","N/A","N/A","N/A","9","0","6","1","0","0.4166666900000001","stim/T050.jpg","76","76","0.44999998199999997","3","1","3","","2","3","4","3","3","1","2","3","1","1","1","2","4","5","1","3","5","1","5","2","4","4","0","4","3","3","3","3","4","5","3","3","3","1","3","3","4","3","4","4","3","3","3","3","3","1","3","3","4","4","1","2","3","3","3","5","5","3","3","3","2","agree","290.3999999910593","","","","","","","","<div style=""font-size:60px;"">?</div>","76","39","1","0.8"
"image-keyboard-response","112","410017","0.0-11.0-0.39","nvqg8010acx1326","1","6110b1dcbb626d41122cb7bd","25","01/1996","single","English","French, Italian","Female","White or Caucasian","No","Undergraduate degree","Yes, Graduate studies","N/A","N/A","N/A","9","0","6","1","0","0.4166666900000001","stim/T050.jpg","76","76","0.44999998199999997","3","1","3","","2","3","4","3","3","1","2","3","1","1","1","2","4","5","1","3","5","1","5","2","4","4","0","4","3","3","3","3","4","5","3","3","3","1","3","3","4","3","4","4","3","3","3","3","3","1","3","3","4","4","1","2","3","3","3","5","5","3","3","3","2","agree","null","","","","","","","","stim/H120.jpg","null","","",""
"html-keyboard-response","113","410260","0.0-11.0-1.39","nvqg8010acx1326","1","6110b1dcbb626d41122cb7bd","25","01/1996","single","English","French, Italian","Female","White or Caucasian","No","Undergraduate degree","Yes, Graduate studies","N/A","N/A","N/A","9","0","6","1","0","0.4166666900000001","stim/T050.jpg","76","76","0.44999998199999997","3","1","3","","2","3","4","3","3","1","2","3","1","1","1","2","4","5","1","3","5","1","5","2","4","4","0","4","3","3","3","3","4","5","3","3","3","1","3","3","4","3","4","4","3","3","3","3","3","1","3","3","4","4","1","2","3","3","3","5","5","3","3","3","2","agree","241.40000000596046","","","","","","","","<div style=""font-size:60px;"">?</div>","76","40","1","0.8"
"image-keyboard-response","114","411273","0.0-11.0-0.40","nvqg8010acx1326","1","6110b1dcbb626d41122cb7bd","25","01/1996","single","English","French, Italian","Female","White or Caucasian","No","Undergraduate degree","Yes, Graduate studies","N/A","N/A","N/A","9","0","6","1","0","0.4166666900000001","stim/T050.jpg","76","76","0.44999998199999997","3","1","3","","2","3","4","3","3","1","2","3","1","1","1","2","4","5","1","3","5","1","5","2","4","4","0","4","3","3","3","3","4","5","3","3","3","1","3","3","4","3","4","4","3","3","3","3","3","1","3","3","4","4","1","2","3","3","3","5","5","3","3","3","2","agree","null","","","","","","","","stim/H180.jpg","null","","",""
"html-keyboard-response","115","411644","0.0-11.0-1.40","nvqg8010acx1326","1","6110b1dcbb626d41122cb7bd","25","01/1996","single","English","French, Italian","Female","White or Caucasian","No","Undergraduate degree","Yes, Graduate studies","N/A","N/A","N/A","9","0","6","1","0","0.4166666900000001","stim/T050.jpg","76","76","0.44999998199999997","3","1","3","","2","3","4","3","3","1","2","3","1","1","1","2","4","5","1","3","5","1","5","2","4","4","0","4","3","3","3","3","4","5","3","3","3","1","3","3","4","3","4","4","3","3","3","3","3","1","3","3","4","4","1","2","3","3","3","5","5","3","3","3","2","agree","369.70000000298023","","","","","","","","<div style=""font-size:60px;"">?</div>","65","41","1","0.8"
"image-keyboard-response","116","412658","0.0-11.0-0.41","nvqg8010acx1326","1","6110b1dcbb626d41122cb7bd","25","01/1996","single","English","French, Italian","Female","White or Caucasian","No","Undergraduate degree","Yes, Graduate studies","N/A","N/A","N/A","9","0","6","1","0","0.4166666900000001","stim/T050.jpg","76","76","0.44999998199999997","3","1","3","","2","3","4","3","3","1","2","3","1","1","1","2","4","5","1","3","5","1","5","2","4","4","0","4","3","3","3","3","4","5","3","3","3","1","3","3","4","3","4","4","3","3","3","3","3","1","3","3","4","4","1","2","3","3","3","5","5","3","3","3","2","agree","null","","","","","","","","stim/H160.jpg","null","","",""
"html-keyboard-response","117","412970","0.0-11.0-1.41","nvqg8010acx1326","1","6110b1dcbb626d41122cb7bd","25","01/1996","single","English","French, Italian","Female","White or Caucasian","No","Undergraduate degree","Yes, Graduate studies","N/A","N/A","N/A","9","0","6","1","0","0.4166666900000001","stim/T050.jpg","76","76","0.44999998199999997","3","1","3","","2","3","4","3","3","1","2","3","1","1","1","2","4","5","1","3","5","1","5","2","4","4","0","4","3","3","3","3","4","5","3","3","3","1","3","3","4","3","4","4","3","3","3","3","3","1","3","3","4","4","1","2","3","3","3","5","5","3","3","3","2","agree","310.80000001192093","","","","","","","","<div style=""font-size:60px;"">?</div>","76","42","1","0.8"
"image-keyboard-response","118","413976","0.0-11.0-0.42","nvqg8010acx1326","1","6110b1dcbb626d41122cb7bd","25","01/1996","single","English","French, Italian","Female","White or Caucasian","No","Undergraduate degree","Yes, Graduate studies","N/A","N/A","N/A","9","0","6","1","0","0.4166666900000001","stim/T050.jpg","76","76","0.44999998199999997","3","1","3","","2","3","4","3","3","1","2","3","1","1","1","2","4","5","1","3","5","1","5","2","4","4","0","4","3","3","3","3","4","5","3","3","3","1","3","3","4","3","4","4","3","3","3","3","3","1","3","3","4","4","1","2","3","3","3","5","5","3","3","3","2","agree","null","","","","","","","","stim/H210.jpg","null","","",""
"html-keyboard-response","119","414375","0.0-11.0-1.42","nvqg8010acx1326","1","6110b1dcbb626d41122cb7bd","25","01/1996","single","English","French, Italian","Female","White or Caucasian","No","Undergraduate degree","Yes, Graduate studies","N/A","N/A","N/A","9","0","6","1","0","0.4166666900000001","stim/T050.jpg","76","76","0.44999998199999997","3","1","3","","2","3","4","3","3","1","2","3","1","1","1","2","4","5","1","3","5","1","5","2","4","4","0","4","3","3","3","3","4","5","3","3","3","1","3","3","4","3","4","4","3","3","3","3","3","1","3","3","4","4","1","2","3","3","3","5","5","3","3","3","2","agree","397.20000000298023","","","","","","","","<div style=""font-size:60px;"">?</div>","65","43","1","0.8"
"image-keyboard-response","120","415388","0.0-11.0-0.43","nvqg8010acx1326","1","6110b1dcbb626d41122cb7bd","25","01/1996","single","English","French, Italian","Female","White or Caucasian","No","Undergraduate degree","Yes, Graduate studies","N/A","N/A","N/A","9","0","6","1","0","0.4166666900000001","stim/T050.jpg","76","76","0.44999998199999997","3","1","3","","2","3","4","3","3","1","2","3","1","1","1","2","4","5","1","3","5","1","5","2","4","4","0","4","3","3","3","3","4","5","3","3","3","1","3","3","4","3","4","4","3","3","3","3","3","1","3","3","4","4","1","2","3","3","3","5","5","3","3","3","2","agree","null","","","","","","","","stim/T140.jpg","null","","",""
"html-keyboard-response","121","415738","0.0-11.0-1.43","nvqg8010acx1326","1","6110b1dcbb626d41122cb7bd","25","01/1996","single","English","French, Italian","Female","White or Caucasian","No","Undergraduate degree","Yes, Graduate studies","N/A","N/A","N/A","9","0","6","1","0","0.4166666900000001","stim/T050.jpg","76","76","0.44999998199999997","3","1","3","","2","3","4","3","3","1","2","3","1","1","1","2","4","5","1","3","5","1","5","2","4","4","0","4","3","3","3","3","4","5","3","3","3","1","3","3","4","3","4","4","3","3","3","3","3","1","3","3","4","4","1","2","3","3","3","5","5","3","3","3","2","agree","348.20000000298023","","","","","","","","<div style=""font-size:60px;"">?</div>","65","44","1","0.8"
"image-keyboard-response","122","416753","0.0-11.0-0.44","nvqg8010acx1326","1","6110b1dcbb626d41122cb7bd","25","01/1996","single","English","French, Italian","Female","White or Caucasian","No","Undergraduate degree","Yes, Graduate studies","N/A","N/A","N/A","9","0","6","1","0","0.4166666900000001","stim/T050.jpg","76","76","0.44999998199999997","3","1","3","","2","3","4","3","3","1","2","3","1","1","1","2","4","5","1","3","5","1","5","2","4","4","0","4","3","3","3","3","4","5","3","3","3","1","3","3","4","3","4","4","3","3","3","3","3","1","3","3","4","4","1","2","3","3","3","5","5","3","3","3","2","agree","null","","","","","","","","stim/H290.jpg","null","","",""
"html-keyboard-response","123","417152","0.0-11.0-1.44","nvqg8010acx1326","1","6110b1dcbb626d41122cb7bd","25","01/1996","single","English","French, Italian","Female","White or Caucasian","No","Undergraduate degree","Yes, Graduate studies","N/A","N/A","N/A","9","0","6","1","0","0.4166666900000001","stim/T050.jpg","76","76","0.44999998199999997","3","1","3","","2","3","4","3","3","1","2","3","1","1","1","2","4","5","1","3","5","1","5","2","4","4","0","4","3","3","3","3","4","5","3","3","3","1","3","3","4","3","4","4","3","3","3","3","3","1","3","3","4","4","1","2","3","3","3","5","5","3","3","3","2","agree","398","","","","","","","","<div style=""font-size:60px;"">?</div>","65","45","1","0.8"
"image-keyboard-response","124","418167","0.0-11.0-0.45","nvqg8010acx1326","1","6110b1dcbb626d41122cb7bd","25","01/1996","single","English","French, Italian","Female","White or Caucasian","No","Undergraduate degree","Yes, Graduate studies","N/A","N/A","N/A","9","0","6","1","0","0.4166666900000001","stim/T050.jpg","76","76","0.44999998199999997","3","1","3","","2","3","4","3","3","1","2","3","1","1","1","2","4","5","1","3","5","1","5","2","4","4","0","4","3","3","3","3","4","5","3","3","3","1","3","3","4","3","4","4","3","3","3","3","3","1","3","3","4","4","1","2","3","3","3","5","5","3","3","3","2","agree","null","","","","","","","","stim/H250.jpg","null","","",""
"html-keyboard-response","125","418488","0.0-11.0-1.45","nvqg8010acx1326","1","6110b1dcbb626d41122cb7bd","25","01/1996","single","English","French, Italian","Female","White or Caucasian","No","Undergraduate degree","Yes, Graduate studies","N/A","N/A","N/A","9","0","6","1","0","0.4166666900000001","stim/T050.jpg","76","76","0.44999998199999997","3","1","3","","2","3","4","3","3","1","2","3","1","1","1","2","4","5","1","3","5","1","5","2","4","4","0","4","3","3","3","3","4","5","3","3","3","1","3","3","4","3","4","4","3","3","3","3","3","1","3","3","4","4","1","2","3","3","3","5","5","3","3","3","2","agree","319.40000000596046","","","","","","","","<div style=""font-size:60px;"">?</div>","65","46","1","0.8"
"image-keyboard-response","126","419493","0.0-11.0-0.46","nvqg8010acx1326","1","6110b1dcbb626d41122cb7bd","25","01/1996","single","English","French, Italian","Female","White or Caucasian","No","Undergraduate degree","Yes, Graduate studies","N/A","N/A","N/A","9","0","6","1","0","0.4166666900000001","stim/T050.jpg","76","76","0.44999998199999997","3","1","3","","2","3","4","3","3","1","2","3","1","1","1","2","4","5","1","3","5","1","5","2","4","4","0","4","3","3","3","3","4","5","3","3","3","1","3","3","4","3","4","4","3","3","3","3","3","1","3","3","4","4","1","2","3","3","3","5","5","3","3","3","2","agree","null","","","","","","","","stim/T130.jpg","null","","",""
"html-keyboard-response","127","420692","0.0-11.0-1.46","nvqg8010acx1326","1","6110b1dcbb626d41122cb7bd","25","01/1996","single","English","French, Italian","Female","White or Caucasian","No","Undergraduate degree","Yes, Graduate studies","N/A","N/A","N/A","9","0","6","1","0","0.4166666900000001","stim/T050.jpg","76","76","0.44999998199999997","3","1","3","","2","3","4","3","3","1","2","3","1","1","1","2","4","5","1","3","5","1","5","2","4","4","0","4","3","3","3","3","4","5","3","3","3","1","3","3","4","3","4","4","3","3","3","3","3","1","3","3","4","4","1","2","3","3","3","5","5","3","3","3","2","agree","1197.7000000029802","","","","","","","","<div style=""font-size:60px;"">?</div>","65","47","1","0.8"
"image-keyboard-response","128","421708","0.0-11.0-0.47","nvqg8010acx1326","1","6110b1dcbb626d41122cb7bd","25","01/1996","single","English","French, Italian","Female","White or Caucasian","No","Undergraduate degree","Yes, Graduate studies","N/A","N/A","N/A","9","0","6","1","0","0.4166666900000001","stim/T050.jpg","76","76","0.44999998199999997","3","1","3","","2","3","4","3","3","1","2","3","1","1","1","2","4","5","1","3","5","1","5","2","4","4","0","4","3","3","3","3","4","5","3","3","3","1","3","3","4","3","4","4","3","3","3","3","3","1","3","3","4","4","1","2","3","3","3","5","5","3","3","3","2","agree","null","","","","","","","","stim/T040.jpg","null","","",""
"html-keyboard-response","129","422208","0.0-11.0-1.47","nvqg8010acx1326","1","6110b1dcbb626d41122cb7bd","25","01/1996","single","English","French, Italian","Female","White or Caucasian","No","Undergraduate degree","Yes, Graduate studies","N/A","N/A","N/A","9","0","6","1","0","0.4166666900000001","stim/T050.jpg","76","76","0.44999998199999997","3","1","3","","2","3","4","3","3","1","2","3","1","1","1","2","4","5","1","3","5","1","5","2","4","4","0","4","3","3","3","3","4","5","3","3","3","1","3","3","4","3","4","4","3","3","3","3","3","1","3","3","4","4","1","2","3","3","3","5","5","3","3","3","2","agree","498.79999999701977","","","","","","","","<div style=""font-size:60px;"">?</div>","76","48","1","0.8"
"image-keyboard-response","130","423210","0.0-11.0-0.48","nvqg8010acx1326","1","6110b1dcbb626d41122cb7bd","25","01/1996","single","English","French, Italian","Female","White or Caucasian","No","Undergraduate degree","Yes, Graduate studies","N/A","N/A","N/A","9","0","6","1","0","0.4166666900000001","stim/T050.jpg","76","76","0.44999998199999997","3","1","3","","2","3","4","3","3","1","2","3","1","1","1","2","4","5","1","3","5","1","5","2","4","4","0","4","3","3","3","3","4","5","3","3","3","1","3","3","4","3","4","4","3","3","3","3","3","1","3","3","4","4","1","2","3","3","3","5","5","3","3","3","2","agree","null","","","","","","","","stim/T220.jpg","null","","",""
"html-keyboard-response","131","427346","0.0-11.0-1.48","nvqg8010acx1326","1","6110b1dcbb626d41122cb7bd","25","01/1996","single","English","French, Italian","Female","White or Caucasian","No","Undergraduate degree","Yes, Graduate studies","N/A","N/A","N/A","9","0","6","1","0","0.4166666900000001","stim/T050.jpg","76","76","0.44999998199999997","3","1","3","","2","3","4","3","3","1","2","3","1","1","1","2","4","5","1","3","5","1","5","2","4","4","0","4","3","3","3","3","4","5","3","3","3","1","3","3","4","3","4","4","3","3","3","3","3","1","3","3","4","4","1","2","3","3","3","5","5","3","3","3","2","agree","4135.29999999702","","","","","","","","<div style=""font-size:60px;"">?</div>","65","49","1","0.8"
"image-keyboard-response","132","428350","0.0-11.0-0.49","nvqg8010acx1326","1","6110b1dcbb626d41122cb7bd","25","01/1996","single","English","French, Italian","Female","White or Caucasian","No","Undergraduate degree","Yes, Graduate studies","N/A","N/A","N/A","9","0","6","1","0","0.4166666900000001","stim/T050.jpg","76","76","0.44999998199999997","3","1","3","","2","3","4","3","3","1","2","3","1","1","1","2","4","5","1","3","5","1","5","2","4","4","0","4","3","3","3","3","4","5","3","3","3","1","3","3","4","3","4","4","3","3","3","3","3","1","3","3","4","4","1","2","3","3","3","5","5","3","3","3","2","agree","null","","","","","","","","stim/H020.jpg","null","","",""
"html-keyboard-response","133","429042","0.0-11.0-1.49","nvqg8010acx1326","1","6110b1dcbb626d41122cb7bd","25","01/1996","single","English","French, Italian","Female","White or Caucasian","No","Undergraduate degree","Yes, Graduate studies","N/A","N/A","N/A","9","0","6","1","0","0.4166666900000001","stim/T050.jpg","76","76","0.44999998199999997","3","1","3","","2","3","4","3","3","1","2","3","1","1","1","2","4","5","1","3","5","1","5","2","4","4","0","4","3","3","3","3","4","5","3","3","3","1","3","3","4","3","4","4","3","3","3","3","3","1","3","3","4","4","1","2","3","3","3","5","5","3","3","3","2","agree","690.3999999910593","","","","","","","","<div style=""font-size:60px;"">?</div>","76","50","1","0.8"
"html-keyboard-response","134","523505","0.0-12.0","nvqg8010acx1326","1","6110b1dcbb626d41122cb7bd","25","01/1996","single","English","French, Italian","Female","White or Caucasian","No","Undergraduate degree","Yes, Graduate studies","N/A","N/A","N/A","9","0","6","1","0","0.4166666900000001","stim/T050.jpg","76","76","0.44999998199999997","3","1","3","","2","3","4","3","3","1","2","3","1","1","1","2","4","5","1","3","5","1","5","2","4","4","0","4","3","3","3","3","4","5","3","3","3","1","3","3","4","3","4","4","3","3","3","3","3","1","3","3","4","4","1","2","3","3","3","5","5","3","3","3","2","agree","93956","","","","","","","","<p>Block 2</p><p>Press SPACE to continue.</p>","32","","",""
"image-keyboard-response","135","525008","0.0-13.0-0.0","nvqg8010acx1326","1","6110b1dcbb626d41122cb7bd","25","01/1996","single","English","French, Italian","Female","White or Caucasian","No","Undergraduate degree","Yes, Graduate studies","N/A","N/A","N/A","9","0","6","1","0","0.4166666900000001","stim/T050.jpg","76","76","0.44999998199999997","3","1","3","","2","3","4","3","3","1","2","3","1","1","1","2","4","5","1","3","5","1","5","2","4","4","0","4","3","3","3","3","4","5","3","3","3","1","3","3","4","3","4","4","3","3","3","3","3","1","3","3","4","4","1","2","3","3","3","5","5","3","3","3","2","agree","null","","","","","","","","stim/T290.jpg","null","","",""
"html-keyboard-response","136","525511","0.0-13.0-1.0","nvqg8010acx1326","1","6110b1dcbb626d41122cb7bd","25","01/1996","single","English","French, Italian","Female","White or Caucasian","No","Undergraduate degree","Yes, Graduate studies","N/A","N/A","N/A","9","0","6","1","0","0.4166666900000001","stim/T050.jpg","76","76","0.44999998199999997","3","1","3","","2","3","4","3","3","1","2","3","1","1","1","2","4","5","1","3","5","1","5","2","4","4","0","4","3","3","3","3","4","5","3","3","3","1","3","3","4","3","4","4","3","3","3","3","3","1","3","3","4","4","1","2","3","3","3","5","5","3","3","3","2","agree","500","","","","","","","","<div style=""font-size:60px;"">?</div>","65","1","2","0.8"
"image-keyboard-response","137","526518","0.0-13.0-0.1","nvqg8010acx1326","1","6110b1dcbb626d41122cb7bd","25","01/1996","single","English","French, Italian","Female","White or Caucasian","No","Undergraduate degree","Yes, Graduate studies","N/A","N/A","N/A","9","0","6","1","0","0.4166666900000001","stim/T050.jpg","76","76","0.44999998199999997","3","1","3","","2","3","4","3","3","1","2","3","1","1","1","2","4","5","1","3","5","1","5","2","4","4","0","4","3","3","3","3","4","5","3","3","3","1","3","3","4","3","4","4","3","3","3","3","3","1","3","3","4","4","1","2","3","3","3","5","5","3","3","3","2","agree","null","","","","","","","","stim/H080.jpg","null","","",""
"html-keyboard-response","138","527066","0.0-13.0-1.1","nvqg8010acx1326","1","6110b1dcbb626d41122cb7bd","25","01/1996","single","English","French, Italian","Female","White or Caucasian","No","Undergraduate degree","Yes, Graduate studies","N/A","N/A","N/A","9","0","6","1","0","0.4166666900000001","stim/T050.jpg","76","76","0.44999998199999997","3","1","3","","2","3","4","3","3","1","2","3","1","1","1","2","4","5","1","3","5","1","5","2","4","4","0","4","3","3","3","3","4","5","3","3","3","1","3","3","4","3","4","4","3","3","3","3","3","1","3","3","4","4","1","2","3","3","3","5","5","3","3","3","2","agree","547.0999999940395","","","","","","","","<div style=""font-size:60px;"">?</div>","76","2","2","0.8"
"image-keyboard-response","139","528075","0.0-13.0-0.2","nvqg8010acx1326","1","6110b1dcbb626d41122cb7bd","25","01/1996","single","English","French, Italian","Female","White or Caucasian","No","Undergraduate degree","Yes, Graduate studies","N/A","N/A","N/A","9","0","6","1","0","0.4166666900000001","stim/T050.jpg","76","76","0.44999998199999997","3","1","3","","2","3","4","3","3","1","2","3","1","1","1","2","4","5","1","3","5","1","5","2","4","4","0","4","3","3","3","3","4","5","3","3","3","1","3","3","4","3","4","4","3","3","3","3","3","1","3","3","4","4","1","2","3","3","3","5","5","3","3","3","2","agree","null","","","","","","","","stim/H170.jpg","null","","",""
"html-keyboard-response","140","528542","0.0-13.0-1.2","nvqg8010acx1326","1","6110b1dcbb626d41122cb7bd","25","01/1996","single","English","French, Italian","Female","White or Caucasian","No","Undergraduate degree","Yes, Graduate studies","N/A","N/A","N/A","9","0","6","1","0","0.4166666900000001","stim/T050.jpg","76","76","0.44999998199999997","3","1","3","","2","3","4","3","3","1","2","3","1","1","1","2","4","5","1","3","5","1","5","2","4","4","0","4","3","3","3","3","4","5","3","3","3","1","3","3","4","3","4","4","3","3","3","3","3","1","3","3","4","4","1","2","3","3","3","5","5","3","3","3","2","agree","465.59999999403954","","","","","","","","<div style=""font-size:60px;"">?</div>","76","3","2","0.8"
