"trial_type","trial_index","time_elapsed","internal_node_id","subject","condition","ID","age","dob","marital","natlang","olang","gender","ethnicity","mental_check","educ_l","educ_c","mental","mentdrug","mentpos","sesparent","sesstudent","sesladder","educ_hs","educ_ce","s1self","chosenbody","s1selfjudge","s2selfjudge","s2self","sspc_01","sspc_02","pas_01","pas_02","pas_03","pas_04","pas_05","pas_06","pas_07","pas_08","pas_09","pas_10","pas_11","pas_12","pas_13","pas_14","contact_01","contact_02","contact_03","contact_04","contact_05","contact_06","contact_07","contact_08","contact_09","idnd_01","idnd_02","idnd_03","idnd_04","idnd_05","idnd_06","idnd_07","idnd_08","catch_01","adig_01","adig_02","adig_03","plcs_01","plcs_02","plcs_03","plcs_04","plcs_05","plcs_06","plcs_07","plcs_08","plcs_09","plcs_10","plcs_11","plcs_12","catch_02","wwwp_01","wwwp_02","wwwp_03","wwwp_04","wwwp_05","wwwp_06","wwwp_07","wwwp_08","wwwp_09","lsns_fam_1","lsns_fam_2","lsns_fam_3","lsns_fri_1","lsns_fri_2","lsns_fri_3","debrief","rt","url","success","view_history","responses","question_order","final_value","start_value","stimulus","key_press","trial","block","freq"
"pavlovia","0","4","0.0-0.0","bfvzapnfac2mtjr","1","60feda9a21964047d2a68b74","22","12/1998","In a relationship","English","Mandarin","Female","Asian","No","Undergraduate degree","No, currently not in school","N/A","N/A","N/A","9","9","7","1","0","0.5","stim/N000.jpg","76","65","0.483333334","3","1","3","","2","1","3","2","1","2","2","3","0","3","0","3","4","5","1","5","5","1","3","2","3","5","1","5","5","5","1","5","5","5","1","1","2","0","0","2","3","2","4","5","3","1","3","3","4","1","5","4","5","5","5","4","5","5","3","3","3","1","3","3","3","agree","","","","","","","","","","","","",""
"external-html","1","6616","0.0-1.0","bfvzapnfac2mtjr","1","60feda9a21964047d2a68b74","22","12/1998","In a relationship","English","Mandarin","Female","Asian","No","Undergraduate degree","No, currently not in school","N/A","N/A","N/A","9","9","7","1","0","0.5","stim/N000.jpg","76","65","0.483333334","3","1","3","","2","1","3","2","1","2","2","3","0","3","0","3","4","5","1","5","5","1","3","2","3","5","1","5","5","5","1","5","5","5","1","1","2","0","0","2","3","2","4","5","3","1","3","3","4","1","5","4","5","5","5","4","5","5","3","3","3","1","3","3","3","agree","6465.899999991059","sub/html/consent.html","","","","","","","","","","",""
"fullscreen","2","9426","0.0-2.0","bfvzapnfac2mtjr","1","60feda9a21964047d2a68b74","22","12/1998","In a relationship","English","Mandarin","Female","Asian","No","Undergraduate degree","No, currently not in school","N/A","N/A","N/A","9","9","7","1","0","0.5","stim/N000.jpg","76","65","0.483333334","3","1","3","","2","1","3","2","1","2","2","3","0","3","0","3","4","5","1","5","5","1","3","2","3","5","1","5","5","5","1","5","5","5","1","1","2","0","0","2","3","2","4","5","3","1","3","3","4","1","5","4","5","5","5","4","5","5","3","3","3","1","3","3","3","agree","","","true","","","","","","","","","",""
"instructions","3","15407","0.0-3.0","bfvzapnfac2mtjr","1","60feda9a21964047d2a68b74","22","12/1998","In a relationship","English","Mandarin","Female","Asian","No","Undergraduate degree","No, currently not in school","N/A","N/A","N/A","9","9","7","1","0","0.5","stim/N000.jpg","76","65","0.483333334","3","1","3","","2","1","3","2","1","2","2","3","0","3","0","3","4","5","1","5","5","1","3","2","3","5","1","5","5","5","1","5","5","5","1","1","2","0","0","2","3","2","4","5","3","1","3","3","4","1","5","4","5","5","5","4","5","5","3","3","3","1","3","3","3","agree","5980.0999999940395","","","[{""page_index"":0,""viewing_time"":3067.5},{""page_index"":1,""viewing_time"":2911.7999999970198}]","","","","","","","","",""
"survey-text","4","51262","0.0-4.0-0.0","bfvzapnfac2mtjr","1","60feda9a21964047d2a68b74","22","12/1998","In a relationship","English","Mandarin","Female","Asian","No","Undergraduate degree","No, currently not in school","N/A","N/A","N/A","9","9","7","1","0","0.5","stim/N000.jpg","76","65","0.483333334","3","1","3","","2","1","3","2","1","2","2","3","0","3","0","3","4","5","1","5","5","1","3","2","3","5","1","5","5","5","1","5","5","5","1","1","2","0","0","2","3","2","4","5","3","1","3","3","4","1","5","4","5","5","5","4","5","5","3","3","3","1","3","3","3","agree","35838.60000000894","","","","{""ID"":""60feda9a21964047d2a68b74"",""age"":""22"",""dob"":""12/1998"",""marital"":""In a relationship"",""natlang"":""English"",""olang"":""Mandarin""}","","","","","","","",""
"survey-multi-choice","5","70222","0.0-4.0-1.0","bfvzapnfac2mtjr","1","60feda9a21964047d2a68b74","22","12/1998","In a relationship","English","Mandarin","Female","Asian","No","Undergraduate degree","No, currently not in school","N/A","N/A","N/A","9","9","7","1","0","0.5","stim/N000.jpg","76","65","0.483333334","3","1","3","","2","1","3","2","1","2","2","3","0","3","0","3","4","5","1","5","5","1","3","2","3","5","1","5","5","5","1","5","5","5","1","1","2","0","0","2","3","2","4","5","3","1","3","3","4","1","5","4","5","5","5","4","5","5","3","3","3","1","3","3","3","agree","18957","","","","{""gender"":""Female"",""ethnicity"":""Asian"",""mental_check"":""No"",""educ_l"":""Undergraduate degree"",""educ_c"":""No, currently not in school""}","[0,1,2,3,4]","","","","","","",""
"survey-text","6","87355","0.0-4.0-2.0","bfvzapnfac2mtjr","1","60feda9a21964047d2a68b74","22","12/1998","In a relationship","English","Mandarin","Female","Asian","No","Undergraduate degree","No, currently not in school","N/A","N/A","N/A","9","9","7","1","0","0.5","stim/N000.jpg","76","65","0.483333334","3","1","3","","2","1","3","2","1","2","2","3","0","3","0","3","4","5","1","5","5","1","3","2","3","5","1","5","5","5","1","5","5","5","1","1","2","0","0","2","3","2","4","5","3","1","3","3","4","1","5","4","5","5","5","4","5","5","3","3","3","1","3","3","3","agree","17123.70000000298","","","","{""mental"":""N/A"",""mentdrug"":""N/A"",""mentpos"":""N/A""}","","","","","","","",""
"survey-likert","7","112729","0.0-4.0-3.0","bfvzapnfac2mtjr","1","60feda9a21964047d2a68b74","22","12/1998","In a relationship","English","Mandarin","Female","Asian","No","Undergraduate degree","No, currently not in school","N/A","N/A","N/A","9","9","7","1","0","0.5","stim/N000.jpg","76","65","0.483333334","3","1","3","","2","1","3","2","1","2","2","3","0","3","0","3","4","5","1","5","5","1","3","2","3","5","1","5","5","5","1","5","5","5","1","1","2","0","0","2","3","2","4","5","3","1","3","3","4","1","5","4","5","5","5","4","5","5","3","3","3","1","3","3","3","agree","25371.09999999404","","","","{""sesparent"":9,""sesstudent"":9,""sesladder"":7}","[0,1,2]","","","","","","",""
"survey-likert","8","135952","0.0-4.0-4.0","bfvzapnfac2mtjr","1","60feda9a21964047d2a68b74","22","12/1998","In a relationship","English","Mandarin","Female","Asian","No","Undergraduate degree","No, currently not in school","N/A","N/A","N/A","9","9","7","1","0","0.5","stim/N000.jpg","76","65","0.483333334","3","1","3","","2","1","3","2","1","2","2","3","0","3","0","3","4","5","1","5","5","1","3","2","3","5","1","5","5","5","1","5","5","5","1","1","2","0","0","2","3","2","4","5","3","1","3","3","4","1","5","4","5","5","5","4","5","5","3","3","3","1","3","3","3","agree","23218.09999999404","","","","{""educ_hs"":0,""educ_ce"":13}","[0,1]","","","","","","",""
"reconstruction","9","177735","0.0-5.0","bfvzapnfac2mtjr","1","60feda9a21964047d2a68b74","22","12/1998","In a relationship","English","Mandarin","Female","Asian","No","Undergraduate degree","No, currently not in school","N/A","N/A","N/A","9","9","7","1","0","0.5","stim/N000.jpg","76","65","0.483333334","3","1","3","","2","1","3","2","1","2","2","3","0","3","0","3","4","5","1","5","5","1","3","2","3","5","1","5","5","5","1","5","5","5","1","1","2","0","0","2","3","2","4","5","3","1","3","3","4","1","5","4","5","5","5","4","5","5","3","3","3","1","3","3","3","agree","41779.5","","","","","","0.5","0.5","","","","",""
"image-keyboard-response","10","181255","0.0-6.0","bfvzapnfac2mtjr","1","60feda9a21964047d2a68b74","22","12/1998","In a relationship","English","Mandarin","Female","Asian","No","Undergraduate degree","No, currently not in school","N/A","N/A","N/A","9","9","7","1","0","0.5","stim/N000.jpg","76","65","0.483333334","3","1","3","","2","1","3","2","1","2","2","3","0","3","0","3","4","5","1","5","5","1","3","2","3","5","1","5","5","5","1","5","5","5","1","1","2","0","0","2","3","2","4","5","3","1","3","3","4","1","5","4","5","5","5","4","5","5","3","3","3","1","3","3","3","agree","3516.8999999910593","","","","","","","","stim/N000.jpg","76","","",""
"instructions","11","211307","0.0-7.0","bfvzapnfac2mtjr","1","60feda9a21964047d2a68b74","22","12/1998","In a relationship","English","Mandarin","Female","Asian","No","Undergraduate degree","No, currently not in school","N/A","N/A","N/A","9","9","7","1","0","0.5","stim/N000.jpg","76","65","0.483333334","3","1","3","","2","1","3","2","1","2","2","3","0","3","0","3","4","5","1","5","5","1","3","2","3","5","1","5","5","5","1","5","5","5","1","1","2","0","0","2","3","2","4","5","3","1","3","3","4","1","5","4","5","5","5","4","5","5","3","3","3","1","3","3","3","agree","30052.29999999702","","","[{""page_index"":0,""viewing_time"":4144},{""page_index"":1,""viewing_time"":7250.29999999702},{""page_index"":2,""viewing_time"":7211.5},{""page_index"":3,""viewing_time"":2389.6000000089407},{""page_index"":4,""viewing_time"":2572.2999999970198},{""page_index"":5,""viewing_time"":5486.70000000298},{""page_index"":6,""viewing_time"":997.1999999880791}]","","","","","","","","",""
"image-keyboard-response","12","211810","0.0-8.0-0.0","bfvzapnfac2mtjr","1","60feda9a21964047d2a68b74","22","12/1998","In a relationship","English","Mandarin","Female","Asian","No","Undergraduate degree","No, currently not in school","N/A","N/A","N/A","9","9","7","1","0","0.5","stim/N000.jpg","76","65","0.483333334","3","1","3","","2","1","3","2","1","2","2","3","0","3","0","3","4","5","1","5","5","1","3","2","3","5","1","5","5","5","1","5","5","5","1","1","2","0","0","2","3","2","4","5","3","1","3","3","4","1","5","4","5","5","5","4","5","5","3","3","3","1","3","3","3","agree","null","","","","","","","","stim/T220.jpg","null","","",""
"html-keyboard-response","13","215800","0.0-8.0-1.0","bfvzapnfac2mtjr","1","60feda9a21964047d2a68b74","22","12/1998","In a relationship","English","Mandarin","Female","Asian","No","Undergraduate degree","No, currently not in school","N/A","N/A","N/A","9","9","7","1","0","0.5","stim/N000.jpg","76","65","0.483333334","3","1","3","","2","1","3","2","1","2","2","3","0","3","0","3","4","5","1","5","5","1","3","2","3","5","1","5","5","5","1","5","5","5","1","1","2","0","0","2","3","2","4","5","3","1","3","3","4","1","5","4","5","5","5","4","5","5","3","3","3","1","3","3","3","agree","3988.7000000029802","","","","","","","","<div style=""font-size:60px;"">?</div>","76","1","Practice","0.5"
"image-keyboard-response","14","216804","0.0-8.0-0.1","bfvzapnfac2mtjr","1","60feda9a21964047d2a68b74","22","12/1998","In a relationship","English","Mandarin","Female","Asian","No","Undergraduate degree","No, currently not in school","N/A","N/A","N/A","9","9","7","1","0","0.5","stim/N000.jpg","76","65","0.483333334","3","1","3","","2","1","3","2","1","2","2","3","0","3","0","3","4","5","1","5","5","1","3","2","3","5","1","5","5","5","1","5","5","5","1","1","2","0","0","2","3","2","4","5","3","1","3","3","4","1","5","4","5","5","5","4","5","5","3","3","3","1","3","3","3","agree","null","","","","","","","","stim/H260.jpg","null","","",""
"html-keyboard-response","15","219811","0.0-8.0-1.1","bfvzapnfac2mtjr","1","60feda9a21964047d2a68b74","22","12/1998","In a relationship","English","Mandarin","Female","Asian","No","Undergraduate degree","No, currently not in school","N/A","N/A","N/A","9","9","7","1","0","0.5","stim/N000.jpg","76","65","0.483333334","3","1","3","","2","1","3","2","1","2","2","3","0","3","0","3","4","5","1","5","5","1","3","2","3","5","1","5","5","5","1","5","5","5","1","1","2","0","0","2","3","2","4","5","3","1","3","3","4","1","5","4","5","5","5","4","5","5","3","3","3","1","3","3","3","agree","3006","","","","","","","","<div style=""font-size:60px;"">?</div>","65","2","Practice","0.5"
"image-keyboard-response","16","220817","0.0-8.0-0.2","bfvzapnfac2mtjr","1","60feda9a21964047d2a68b74","22","12/1998","In a relationship","English","Mandarin","Female","Asian","No","Undergraduate degree","No, currently not in school","N/A","N/A","N/A","9","9","7","1","0","0.5","stim/N000.jpg","76","65","0.483333334","3","1","3","","2","1","3","2","1","2","2","3","0","3","0","3","4","5","1","5","5","1","3","2","3","5","1","5","5","5","1","5","5","5","1","1","2","0","0","2","3","2","4","5","3","1","3","3","4","1","5","4","5","5","5","4","5","5","3","3","3","1","3","3","3","agree","null","","","","","","","","stim/H150.jpg","null","","",""
"html-keyboard-response","17","222415","0.0-8.0-1.2","bfvzapnfac2mtjr","1","60feda9a21964047d2a68b74","22","12/1998","In a relationship","English","Mandarin","Female","Asian","No","Undergraduate degree","No, currently not in school","N/A","N/A","N/A","9","9","7","1","0","0.5","stim/N000.jpg","76","65","0.483333334","3","1","3","","2","1","3","2","1","2","2","3","0","3","0","3","4","5","1","5","5","1","3","2","3","5","1","5","5","5","1","5","5","5","1","1","2","0","0","2","3","2","4","5","3","1","3","3","4","1","5","4","5","5","5","4","5","5","3","3","3","1","3","3","3","agree","1597.699999988079","","","","","","","","<div style=""font-size:60px;"">?</div>","76","3","Practice","0.5"
"image-keyboard-response","18","223422","0.0-8.0-0.3","bfvzapnfac2mtjr","1","60feda9a21964047d2a68b74","22","12/1998","In a relationship","English","Mandarin","Female","Asian","No","Undergraduate degree","No, currently not in school","N/A","N/A","N/A","9","9","7","1","0","0.5","stim/N000.jpg","76","65","0.483333334","3","1","3","","2","1","3","2","1","2","2","3","0","3","0","3","4","5","1","5","5","1","3","2","3","5","1","5","5","5","1","5","5","5","1","1","2","0","0","2","3","2","4","5","3","1","3","3","4","1","5","4","5","5","5","4","5","5","3","3","3","1","3","3","3","agree","null","","","","","","","","stim/H210.jpg","null","","",""
"html-keyboard-response","19","225378","0.0-8.0-1.3","bfvzapnfac2mtjr","1","60feda9a21964047d2a68b74","22","12/1998","In a relationship","English","Mandarin","Female","Asian","No","Undergraduate degree","No, currently not in school","N/A","N/A","N/A","9","9","7","1","0","0.5","stim/N000.jpg","76","65","0.483333334","3","1","3","","2","1","3","2","1","2","2","3","0","3","0","3","4","5","1","5","5","1","3","2","3","5","1","5","5","5","1","5","5","5","1","1","2","0","0","2","3","2","4","5","3","1","3","3","4","1","5","4","5","5","5","4","5","5","3","3","3","1","3","3","3","agree","1955.2999999970198","","","","","","","","<div style=""font-size:60px;"">?</div>","76","4","Practice","0.5"
"image-keyboard-response","20","226385","0.0-8.0-0.4","bfvzapnfac2mtjr","1","60feda9a21964047d2a68b74","22","12/1998","In a relationship","English","Mandarin","Female","Asian","No","Undergraduate degree","No, currently not in school","N/A","N/A","N/A","9","9","7","1","0","0.5","stim/N000.jpg","76","65","0.483333334","3","1","3","","2","1","3","2","1","2","2","3","0","3","0","3","4","5","1","5","5","1","3","2","3","5","1","5","5","5","1","5","5","5","1","1","2","0","0","2","3","2","4","5","3","1","3","3","4","1","5","4","5","5","5","4","5","5","3","3","3","1","3","3","3","agree","null","","","","","","","","stim/T100.jpg","null","","",""
"html-keyboard-response","21","226886","0.0-8.0-1.4","bfvzapnfac2mtjr","1","60feda9a21964047d2a68b74","22","12/1998","In a relationship","English","Mandarin","Female","Asian","No","Undergraduate degree","No, currently not in school","N/A","N/A","N/A","9","9","7","1","0","0.5","stim/N000.jpg","76","65","0.483333334","3","1","3","","2","1","3","2","1","2","2","3","0","3","0","3","4","5","1","5","5","1","3","2","3","5","1","5","5","5","1","5","5","5","1","1","2","0","0","2","3","2","4","5","3","1","3","3","4","1","5","4","5","5","5","4","5","5","3","3","3","1","3","3","3","agree","499.70000000298023","","","","","","","","<div style=""font-size:60px;"">?</div>","65","5","Practice","0.5"
"image-keyboard-response","22","227892","0.0-8.0-0.5","bfvzapnfac2mtjr","1","60feda9a21964047d2a68b74","22","12/1998","In a relationship","English","Mandarin","Female","Asian","No","Undergraduate degree","No, currently not in school","N/A","N/A","N/A","9","9","7","1","0","0.5","stim/N000.jpg","76","65","0.483333334","3","1","3","","2","1","3","2","1","2","2","3","0","3","0","3","4","5","1","5","5","1","3","2","3","5","1","5","5","5","1","5","5","5","1","1","2","0","0","2","3","2","4","5","3","1","3","3","4","1","5","4","5","5","5","4","5","5","3","3","3","1","3","3","3","agree","null","","","","","","","","stim/H280.jpg","null","","",""
"html-keyboard-response","23","228032","0.0-8.0-1.5","bfvzapnfac2mtjr","1","60feda9a21964047d2a68b74","22","12/1998","In a relationship","English","Mandarin","Female","Asian","No","Undergraduate degree","No, currently not in school","N/A","N/A","N/A","9","9","7","1","0","0.5","stim/N000.jpg","76","65","0.483333334","3","1","3","","2","1","3","2","1","2","2","3","0","3","0","3","4","5","1","5","5","1","3","2","3","5","1","5","5","5","1","5","5","5","1","1","2","0","0","2","3","2","4","5","3","1","3","3","4","1","5","4","5","5","5","4","5","5","3","3","3","1","3","3","3","agree","139","","","","","","","","<div style=""font-size:60px;"">?</div>","76","6","Practice","0.5"
"image-keyboard-response","24","229039","0.0-8.0-0.6","bfvzapnfac2mtjr","1","60feda9a21964047d2a68b74","22","12/1998","In a relationship","English","Mandarin","Female","Asian","No","Undergraduate degree","No, currently not in school","N/A","N/A","N/A","9","9","7","1","0","0.5","stim/N000.jpg","76","65","0.483333334","3","1","3","","2","1","3","2","1","2","2","3","0","3","0","3","4","5","1","5","5","1","3","2","3","5","1","5","5","5","1","5","5","5","1","1","2","0","0","2","3","2","4","5","3","1","3","3","4","1","5","4","5","5","5","4","5","5","3","3","3","1","3","3","3","agree","null","","","","","","","","stim/T130.jpg","null","","",""
"html-keyboard-response","25","229529","0.0-8.0-1.6","bfvzapnfac2mtjr","1","60feda9a21964047d2a68b74","22","12/1998","In a relationship","English","Mandarin","Female","Asian","No","Undergraduate degree","No, currently not in school","N/A","N/A","N/A","9","9","7","1","0","0.5","stim/N000.jpg","76","65","0.483333334","3","1","3","","2","1","3","2","1","2","2","3","0","3","0","3","4","5","1","5","5","1","3","2","3","5","1","5","5","5","1","5","5","5","1","1","2","0","0","2","3","2","4","5","3","1","3","3","4","1","5","4","5","5","5","4","5","5","3","3","3","1","3","3","3","agree","488.29999999701977","","","","","","","","<div style=""font-size:60px;"">?</div>","65","7","Practice","0.5"
"image-keyboard-response","26","230538","0.0-8.0-0.7","bfvzapnfac2mtjr","1","60feda9a21964047d2a68b74","22","12/1998","In a relationship","English","Mandarin","Female","Asian","No","Undergraduate degree","No, currently not in school","N/A","N/A","N/A","9","9","7","1","0","0.5","stim/N000.jpg","76","65","0.483333334","3","1","3","","2","1","3","2","1","2","2","3","0","3","0","3","4","5","1","5","5","1","3","2","3","5","1","5","5","5","1","5","5","5","1","1","2","0","0","2","3","2","4","5","3","1","3","3","4","1","5","4","5","5","5","4","5","5","3","3","3","1","3","3","3","agree","null","","","","","","","","stim/H080.jpg","null","","",""
"html-keyboard-response","27","232483","0.0-8.0-1.7","bfvzapnfac2mtjr","1","60feda9a21964047d2a68b74","22","12/1998","In a relationship","English","Mandarin","Female","Asian","No","Undergraduate degree","No, currently not in school","N/A","N/A","N/A","9","9","7","1","0","0.5","stim/N000.jpg","76","65","0.483333334","3","1","3","","2","1","3","2","1","2","2","3","0","3","0","3","4","5","1","5","5","1","3","2","3","5","1","5","5","5","1","5","5","5","1","1","2","0","0","2","3","2","4","5","3","1","3","3","4","1","5","4","5","5","5","4","5","5","3","3","3","1","3","3","3","agree","1944.6000000089407","","","","","","","","<div style=""font-size:60px;"">?</div>","76","8","Practice","0.5"
"image-keyboard-response","28","233491","0.0-8.0-0.8","bfvzapnfac2mtjr","1","60feda9a21964047d2a68b74","22","12/1998","In a relationship","English","Mandarin","Female","Asian","No","Undergraduate degree","No, currently not in school","N/A","N/A","N/A","9","9","7","1","0","0.5","stim/N000.jpg","76","65","0.483333334","3","1","3","","2","1","3","2","1","2","2","3","0","3","0","3","4","5","1","5","5","1","3","2","3","5","1","5","5","5","1","5","5","5","1","1","2","0","0","2","3","2","4","5","3","1","3","3","4","1","5","4","5","5","5","4","5","5","3","3","3","1","3","3","3","agree","null","","","","","","","","stim/T150.jpg","null","","",""
"html-keyboard-response","29","233505","0.0-8.0-1.8","bfvzapnfac2mtjr","1","60feda9a21964047d2a68b74","22","12/1998","In a relationship","English","Mandarin","Female","Asian","No","Undergraduate degree","No, currently not in school","N/A","N/A","N/A","9","9","7","1","0","0.5","stim/N000.jpg","76","65","0.483333334","3","1","3","","2","1","3","2","1","2","2","3","0","3","0","3","4","5","1","5","5","1","3","2","3","5","1","5","5","5","1","5","5","5","1","1","2","0","0","2","3","2","4","5","3","1","3","3","4","1","5","4","5","5","5","4","5","5","3","3","3","1","3","3","3","agree","13.5","","","","","","","","<div style=""font-size:60px;"">?</div>","65","9","Practice","0.5"
"image-keyboard-response","30","234507","0.0-8.0-0.9","bfvzapnfac2mtjr","1","60feda9a21964047d2a68b74","22","12/1998","In a relationship","English","Mandarin","Female","Asian","No","Undergraduate degree","No, currently not in school","N/A","N/A","N/A","9","9","7","1","0","0.5","stim/N000.jpg","76","65","0.483333334","3","1","3","","2","1","3","2","1","2","2","3","0","3","0","3","4","5","1","5","5","1","3","2","3","5","1","5","5","5","1","5","5","5","1","1","2","0","0","2","3","2","4","5","3","1","3","3","4","1","5","4","5","5","5","4","5","5","3","3","3","1","3","3","3","agree","null","","","","","","","","stim/T080.jpg","null","","",""
"html-keyboard-response","31","234932","0.0-8.0-1.9","bfvzapnfac2mtjr","1","60feda9a21964047d2a68b74","22","12/1998","In a relationship","English","Mandarin","Female","Asian","No","Undergraduate degree","No, currently not in school","N/A","N/A","N/A","9","9","7","1","0","0.5","stim/N000.jpg","76","65","0.483333334","3","1","3","","2","1","3","2","1","2","2","3","0","3","0","3","4","5","1","5","5","1","3","2","3","5","1","5","5","5","1","5","5","5","1","1","2","0","0","2","3","2","4","5","3","1","3","3","4","1","5","4","5","5","5","4","5","5","3","3","3","1","3","3","3","agree","423.5","","","","","","","","<div style=""font-size:60px;"">?</div>","65","10","Practice","0.5"
"html-keyboard-response","32","243179","0.0-9.0","bfvzapnfac2mtjr","1","60feda9a21964047d2a68b74","22","12/1998","In a relationship","English","Mandarin","Female","Asian","No","Undergraduate degree","No, currently not in school","N/A","N/A","N/A","9","9","7","1","0","0.5","stim/N000.jpg","76","65","0.483333334","3","1","3","","2","1","3","2","1","2","2","3","0","3","0","3","4","5","1","5","5","1","3","2","3","5","1","5","5","5","1","5","5","5","1","1","2","0","0","2","3","2","4","5","3","1","3","3","4","1","5","4","5","5","5","4","5","5","3","3","3","1","3","3","3","agree","7741.0999999940395","","","","","","","","<p>You have now completed the practice series.</p><p>If you have any questions, please reload this page and read the instructions again.</p><p>Otherwise, you're ready to begin the study!</p><p><strong>REMEMBER</strong>: Press <b>L </b>when you think the face is of Western origin, and <b>A </b>if not. </p><p>Press SPACE when you're ready to start!</p>","32","","",""
"html-keyboard-response","33","245124","0.0-10.0","bfvzapnfac2mtjr","1","60feda9a21964047d2a68b74","22","12/1998","In a relationship","English","Mandarin","Female","Asian","No","Undergraduate degree","No, currently not in school","N/A","N/A","N/A","9","9","7","1","0","0.5","stim/N000.jpg","76","65","0.483333334","3","1","3","","2","1","3","2","1","2","2","3","0","3","0","3","4","5","1","5","5","1","3","2","3","5","1","5","5","5","1","5","5","5","1","1","2","0","0","2","3","2","4","5","3","1","3","3","4","1","5","4","5","5","5","4","5","5","3","3","3","1","3","3","3","agree","1439.5","","","","","","","","<p>Block 1</p><p>Press SPACE to continue.</p>","32","","",""
"image-keyboard-response","34","246630","0.0-11.0-0.0","bfvzapnfac2mtjr","1","60feda9a21964047d2a68b74","22","12/1998","In a relationship","English","Mandarin","Female","Asian","No","Undergraduate degree","No, currently not in school","N/A","N/A","N/A","9","9","7","1","0","0.5","stim/N000.jpg","76","65","0.483333334","3","1","3","","2","1","3","2","1","2","2","3","0","3","0","3","4","5","1","5","5","1","3","2","3","5","1","5","5","5","1","5","5","5","1","1","2","0","0","2","3","2","4","5","3","1","3","3","4","1","5","4","5","5","5","4","5","5","3","3","3","1","3","3","3","agree","null","","","","","","","","stim/H160.jpg","null","","",""
"html-keyboard-response","35","247662","0.0-11.0-1.0","bfvzapnfac2mtjr","1","60feda9a21964047d2a68b74","22","12/1998","In a relationship","English","Mandarin","Female","Asian","No","Undergraduate degree","No, currently not in school","N/A","N/A","N/A","9","9","7","1","0","0.5","stim/N000.jpg","76","65","0.483333334","3","1","3","","2","1","3","2","1","2","2","3","0","3","0","3","4","5","1","5","5","1","3","2","3","5","1","5","5","5","1","5","5","5","1","1","2","0","0","2","3","2","4","5","3","1","3","3","4","1","5","4","5","5","5","4","5","5","3","3","3","1","3","3","3","agree","1030.7000000029802","","","","","","","","<div style=""font-size:60px;"">?</div>","76","1","1","0.8"
"image-keyboard-response","36","248668","0.0-11.0-0.1","bfvzapnfac2mtjr","1","60feda9a21964047d2a68b74","22","12/1998","In a relationship","English","Mandarin","Female","Asian","No","Undergraduate degree","No, currently not in school","N/A","N/A","N/A","9","9","7","1","0","0.5","stim/N000.jpg","76","65","0.483333334","3","1","3","","2","1","3","2","1","2","2","3","0","3","0","3","4","5","1","5","5","1","3","2","3","5","1","5","5","5","1","5","5","5","1","1","2","0","0","2","3","2","4","5","3","1","3","3","4","1","5","4","5","5","5","4","5","5","3","3","3","1","3","3","3","agree","null","","","","","","","","stim/T210.jpg","null","","",""
"html-keyboard-response","37","249498","0.0-11.0-1.1","bfvzapnfac2mtjr","1","60feda9a21964047d2a68b74","22","12/1998","In a relationship","English","Mandarin","Female","Asian","No","Undergraduate degree","No, currently not in school","N/A","N/A","N/A","9","9","7","1","0","0.5","stim/N000.jpg","76","65","0.483333334","3","1","3","","2","1","3","2","1","2","2","3","0","3","0","3","4","5","1","5","5","1","3","2","3","5","1","5","5","5","1","5","5","5","1","1","2","0","0","2","3","2","4","5","3","1","3","3","4","1","5","4","5","5","5","4","5","5","3","3","3","1","3","3","3","agree","828.2999999970198","","","","","","","","<div style=""font-size:60px;"">?</div>","65","2","1","0.8"
"image-keyboard-response","38","250504","0.0-11.0-0.2","bfvzapnfac2mtjr","1","60feda9a21964047d2a68b74","22","12/1998","In a relationship","English","Mandarin","Female","Asian","No","Undergraduate degree","No, currently not in school","N/A","N/A","N/A","9","9","7","1","0","0.5","stim/N000.jpg","76","65","0.483333334","3","1","3","","2","1","3","2","1","2","2","3","0","3","0","3","4","5","1","5","5","1","3","2","3","5","1","5","5","5","1","5","5","5","1","1","2","0","0","2","3","2","4","5","3","1","3","3","4","1","5","4","5","5","5","4","5","5","3","3","3","1","3","3","3","agree","null","","","","","","","","stim/H120.jpg","null","","",""
"html-keyboard-response","39","251032","0.0-11.0-1.2","bfvzapnfac2mtjr","1","60feda9a21964047d2a68b74","22","12/1998","In a relationship","English","Mandarin","Female","Asian","No","Undergraduate degree","No, currently not in school","N/A","N/A","N/A","9","9","7","1","0","0.5","stim/N000.jpg","76","65","0.483333334","3","1","3","","2","1","3","2","1","2","2","3","0","3","0","3","4","5","1","5","5","1","3","2","3","5","1","5","5","5","1","5","5","5","1","1","2","0","0","2","3","2","4","5","3","1","3","3","4","1","5","4","5","5","5","4","5","5","3","3","3","1","3","3","3","agree","526.2999999970198","","","","","","","","<div style=""font-size:60px;"">?</div>","76","3","1","0.8"
"image-keyboard-response","40","252039","0.0-11.0-0.3","bfvzapnfac2mtjr","1","60feda9a21964047d2a68b74","22","12/1998","In a relationship","English","Mandarin","Female","Asian","No","Undergraduate degree","No, currently not in school","N/A","N/A","N/A","9","9","7","1","0","0.5","stim/N000.jpg","76","65","0.483333334","3","1","3","","2","1","3","2","1","2","2","3","0","3","0","3","4","5","1","5","5","1","3","2","3","5","1","5","5","5","1","5","5","5","1","1","2","0","0","2","3","2","4","5","3","1","3","3","4","1","5","4","5","5","5","4","5","5","3","3","3","1","3","3","3","agree","null","","","","","","","","stim/H270.jpg","null","","",""
"html-keyboard-response","41","252385","0.0-11.0-1.3","bfvzapnfac2mtjr","1","60feda9a21964047d2a68b74","22","12/1998","In a relationship","English","Mandarin","Female","Asian","No","Undergraduate degree","No, currently not in school","N/A","N/A","N/A","9","9","7","1","0","0.5","stim/N000.jpg","76","65","0.483333334","3","1","3","","2","1","3","2","1","2","2","3","0","3","0","3","4","5","1","5","5","1","3","2","3","5","1","5","5","5","1","5","5","5","1","1","2","0","0","2","3","2","4","5","3","1","3","3","4","1","5","4","5","5","5","4","5","5","3","3","3","1","3","3","3","agree","345.30000001192093","","","","","","","","<div style=""font-size:60px;"">?</div>","76","4","1","0.8"
"image-keyboard-response","42","253395","0.0-11.0-0.4","bfvzapnfac2mtjr","1","60feda9a21964047d2a68b74","22","12/1998","In a relationship","English","Mandarin","Female","Asian","No","Undergraduate degree","No, currently not in school","N/A","N/A","N/A","9","9","7","1","0","0.5","stim/N000.jpg","76","65","0.483333334","3","1","3","","2","1","3","2","1","2","2","3","0","3","0","3","4","5","1","5","5","1","3","2","3","5","1","5","5","5","1","5","5","5","1","1","2","0","0","2","3","2","4","5","3","1","3","3","4","1","5","4","5","5","5","4","5","5","3","3","3","1","3","3","3","agree","null","","","","","","","","stim/H140.jpg","null","","",""
"html-keyboard-response","43","253796","0.0-11.0-1.4","bfvzapnfac2mtjr","1","60feda9a21964047d2a68b74","22","12/1998","In a relationship","English","Mandarin","Female","Asian","No","Undergraduate degree","No, currently not in school","N/A","N/A","N/A","9","9","7","1","0","0.5","stim/N000.jpg","76","65","0.483333334","3","1","3","","2","1","3","2","1","2","2","3","0","3","0","3","4","5","1","5","5","1","3","2","3","5","1","5","5","5","1","5","5","5","1","1","2","0","0","2","3","2","4","5","3","1","3","3","4","1","5","4","5","5","5","4","5","5","3","3","3","1","3","3","3","agree","399.79999999701977","","","","","","","","<div style=""font-size:60px;"">?</div>","76","5","1","0.8"
"image-keyboard-response","44","254800","0.0-11.0-0.5","bfvzapnfac2mtjr","1","60feda9a21964047d2a68b74","22","12/1998","In a relationship","English","Mandarin","Female","Asian","No","Undergraduate degree","No, currently not in school","N/A","N/A","N/A","9","9","7","1","0","0.5","stim/N000.jpg","76","65","0.483333334","3","1","3","","2","1","3","2","1","2","2","3","0","3","0","3","4","5","1","5","5","1","3","2","3","5","1","5","5","5","1","5","5","5","1","1","2","0","0","2","3","2","4","5","3","1","3","3","4","1","5","4","5","5","5","4","5","5","3","3","3","1","3","3","3","agree","null","","","","","","","","stim/T100.jpg","null","","",""
"html-keyboard-response","45","255146","0.0-11.0-1.5","bfvzapnfac2mtjr","1","60feda9a21964047d2a68b74","22","12/1998","In a relationship","English","Mandarin","Female","Asian","No","Undergraduate degree","No, currently not in school","N/A","N/A","N/A","9","9","7","1","0","0.5","stim/N000.jpg","76","65","0.483333334","3","1","3","","2","1","3","2","1","2","2","3","0","3","0","3","4","5","1","5","5","1","3","2","3","5","1","5","5","5","1","5","5","5","1","1","2","0","0","2","3","2","4","5","3","1","3","3","4","1","5","4","5","5","5","4","5","5","3","3","3","1","3","3","3","agree","345.79999999701977","","","","","","","","<div style=""font-size:60px;"">?</div>","65","6","1","0.8"
"image-keyboard-response","46","256157","0.0-11.0-0.6","bfvzapnfac2mtjr","1","60feda9a21964047d2a68b74","22","12/1998","In a relationship","English","Mandarin","Female","Asian","No","Undergraduate degree","No, currently not in school","N/A","N/A","N/A","9","9","7","1","0","0.5","stim/N000.jpg","76","65","0.483333334","3","1","3","","2","1","3","2","1","2","2","3","0","3","0","3","4","5","1","5","5","1","3","2","3","5","1","5","5","5","1","5","5","5","1","1","2","0","0","2","3","2","4","5","3","1","3","3","4","1","5","4","5","5","5","4","5","5","3","3","3","1","3","3","3","agree","null","","","","","","","","stim/H100.jpg","null","","",""
"html-keyboard-response","47","256565","0.0-11.0-1.6","bfvzapnfac2mtjr","1","60feda9a21964047d2a68b74","22","12/1998","In a relationship","English","Mandarin","Female","Asian","No","Undergraduate degree","No, currently not in school","N/A","N/A","N/A","9","9","7","1","0","0.5","stim/N000.jpg","76","65","0.483333334","3","1","3","","2","1","3","2","1","2","2","3","0","3","0","3","4","5","1","5","5","1","3","2","3","5","1","5","5","5","1","5","5","5","1","1","2","0","0","2","3","2","4","5","3","1","3","3","4","1","5","4","5","5","5","4","5","5","3","3","3","1","3","3","3","agree","407.59999999403954","","","","","","","","<div style=""font-size:60px;"">?</div>","76","7","1","0.8"
"image-keyboard-response","48","257574","0.0-11.0-0.7","bfvzapnfac2mtjr","1","60feda9a21964047d2a68b74","22","12/1998","In a relationship","English","Mandarin","Female","Asian","No","Undergraduate degree","No, currently not in school","N/A","N/A","N/A","9","9","7","1","0","0.5","stim/N000.jpg","76","65","0.483333334","3","1","3","","2","1","3","2","1","2","2","3","0","3","0","3","4","5","1","5","5","1","3","2","3","5","1","5","5","5","1","5","5","5","1","1","2","0","0","2","3","2","4","5","3","1","3","3","4","1","5","4","5","5","5","4","5","5","3","3","3","1","3","3","3","agree","null","","","","","","","","stim/H180.jpg","null","","",""
"html-keyboard-response","49","258161","0.0-11.0-1.7","bfvzapnfac2mtjr","1","60feda9a21964047d2a68b74","22","12/1998","In a relationship","English","Mandarin","Female","Asian","No","Undergraduate degree","No, currently not in school","N/A","N/A","N/A","9","9","7","1","0","0.5","stim/N000.jpg","76","65","0.483333334","3","1","3","","2","1","3","2","1","2","2","3","0","3","0","3","4","5","1","5","5","1","3","2","3","5","1","5","5","5","1","5","5","5","1","1","2","0","0","2","3","2","4","5","3","1","3","3","4","1","5","4","5","5","5","4","5","5","3","3","3","1","3","3","3","agree","585.8000000119209","","","","","","","","<div style=""font-size:60px;"">?</div>","76","8","1","0.8"
"image-keyboard-response","50","259167","0.0-11.0-0.8","bfvzapnfac2mtjr","1","60feda9a21964047d2a68b74","22","12/1998","In a relationship","English","Mandarin","Female","Asian","No","Undergraduate degree","No, currently not in school","N/A","N/A","N/A","9","9","7","1","0","0.5","stim/N000.jpg","76","65","0.483333334","3","1","3","","2","1","3","2","1","2","2","3","0","3","0","3","4","5","1","5","5","1","3","2","3","5","1","5","5","5","1","5","5","5","1","1","2","0","0","2","3","2","4","5","3","1","3","3","4","1","5","4","5","5","5","4","5","5","3","3","3","1","3","3","3","agree","null","","","","","","","","stim/H260.jpg","null","","",""
"html-keyboard-response","51","259582","0.0-11.0-1.8","bfvzapnfac2mtjr","1","60feda9a21964047d2a68b74","22","12/1998","In a relationship","English","Mandarin","Female","Asian","No","Undergraduate degree","No, currently not in school","N/A","N/A","N/A","9","9","7","1","0","0.5","stim/N000.jpg","76","65","0.483333334","3","1","3","","2","1","3","2","1","2","2","3","0","3","0","3","4","5","1","5","5","1","3","2","3","5","1","5","5","5","1","5","5","5","1","1","2","0","0","2","3","2","4","5","3","1","3","3","4","1","5","4","5","5","5","4","5","5","3","3","3","1","3","3","3","agree","413.20000000298023","","","","","","","","<div style=""font-size:60px;"">?</div>","76","9","1","0.8"
"image-keyboard-response","52","260585","0.0-11.0-0.9","bfvzapnfac2mtjr","1","60feda9a21964047d2a68b74","22","12/1998","In a relationship","English","Mandarin","Female","Asian","No","Undergraduate degree","No, currently not in school","N/A","N/A","N/A","9","9","7","1","0","0.5","stim/N000.jpg","76","65","0.483333334","3","1","3","","2","1","3","2","1","2","2","3","0","3","0","3","4","5","1","5","5","1","3","2","3","5","1","5","5","5","1","5","5","5","1","1","2","0","0","2","3","2","4","5","3","1","3","3","4","1","5","4","5","5","5","4","5","5","3","3","3","1","3","3","3","agree","null","","","","","","","","stim/H080.jpg","null","","",""
"html-keyboard-response","53","261162","0.0-11.0-1.9","bfvzapnfac2mtjr","1","60feda9a21964047d2a68b74","22","12/1998","In a relationship","English","Mandarin","Female","Asian","No","Undergraduate degree","No, currently not in school","N/A","N/A","N/A","9","9","7","1","0","0.5","stim/N000.jpg","76","65","0.483333334","3","1","3","","2","1","3","2","1","2","2","3","0","3","0","3","4","5","1","5","5","1","3","2","3","5","1","5","5","5","1","5","5","5","1","1","2","0","0","2","3","2","4","5","3","1","3","3","4","1","5","4","5","5","5","4","5","5","3","3","3","1","3","3","3","agree","575.5999999940395","","","","","","","","<div style=""font-size:60px;"">?</div>","76","10","1","0.8"
"image-keyboard-response","54","262167","0.0-11.0-0.10","bfvzapnfac2mtjr","1","60feda9a21964047d2a68b74","22","12/1998","In a relationship","English","Mandarin","Female","Asian","No","Undergraduate degree","No, currently not in school","N/A","N/A","N/A","9","9","7","1","0","0.5","stim/N000.jpg","76","65","0.483333334","3","1","3","","2","1","3","2","1","2","2","3","0","3","0","3","4","5","1","5","5","1","3","2","3","5","1","5","5","5","1","5","5","5","1","1","2","0","0","2","3","2","4","5","3","1","3","3","4","1","5","4","5","5","5","4","5","5","3","3","3","1","3","3","3","agree","null","","","","","","","","stim/H250.jpg","null","","",""
"html-keyboard-response","55","262492","0.0-11.0-1.10","bfvzapnfac2mtjr","1","60feda9a21964047d2a68b74","22","12/1998","In a relationship","English","Mandarin","Female","Asian","No","Undergraduate degree","No, currently not in school","N/A","N/A","N/A","9","9","7","1","0","0.5","stim/N000.jpg","76","65","0.483333334","3","1","3","","2","1","3","2","1","2","2","3","0","3","0","3","4","5","1","5","5","1","3","2","3","5","1","5","5","5","1","5","5","5","1","1","2","0","0","2","3","2","4","5","3","1","3","3","4","1","5","4","5","5","5","4","5","5","3","3","3","1","3","3","3","agree","323.30000001192093","","","","","","","","<div style=""font-size:60px;"">?</div>","76","11","1","0.8"
"image-keyboard-response","56","263493","0.0-11.0-0.11","bfvzapnfac2mtjr","1","60feda9a21964047d2a68b74","22","12/1998","In a relationship","English","Mandarin","Female","Asian","No","Undergraduate degree","No, currently not in school","N/A","N/A","N/A","9","9","7","1","0","0.5","stim/N000.jpg","76","65","0.483333334","3","1","3","","2","1","3","2","1","2","2","3","0","3","0","3","4","5","1","5","5","1","3","2","3","5","1","5","5","5","1","5","5","5","1","1","2","0","0","2","3","2","4","5","3","1","3","3","4","1","5","4","5","5","5","4","5","5","3","3","3","1","3","3","3","agree","null","","","","","","","","stim/H190.jpg","null","","",""
"html-keyboard-response","57","264164","0.0-11.0-1.11","bfvzapnfac2mtjr","1","60feda9a21964047d2a68b74","22","12/1998","In a relationship","English","Mandarin","Female","Asian","No","Undergraduate degree","No, currently not in school","N/A","N/A","N/A","9","9","7","1","0","0.5","stim/N000.jpg","76","65","0.483333334","3","1","3","","2","1","3","2","1","2","2","3","0","3","0","3","4","5","1","5","5","1","3","2","3","5","1","5","5","5","1","5","5","5","1","1","2","0","0","2","3","2","4","5","3","1","3","3","4","1","5","4","5","5","5","4","5","5","3","3","3","1","3","3","3","agree","669.5","","","","","","","","<div style=""font-size:60px;"">?</div>","76","12","1","0.8"
"image-keyboard-response","58","265169","0.0-11.0-0.12","bfvzapnfac2mtjr","1","60feda9a21964047d2a68b74","22","12/1998","In a relationship","English","Mandarin","Female","Asian","No","Undergraduate degree","No, currently not in school","N/A","N/A","N/A","9","9","7","1","0","0.5","stim/N000.jpg","76","65","0.483333334","3","1","3","","2","1","3","2","1","2","2","3","0","3","0","3","4","5","1","5","5","1","3","2","3","5","1","5","5","5","1","5","5","5","1","1","2","0","0","2","3","2","4","5","3","1","3","3","4","1","5","4","5","5","5","4","5","5","3","3","3","1","3","3","3","agree","null","","","","","","","","stim/H020.jpg","null","","",""
"html-keyboard-response","59","267435","0.0-11.0-1.12","bfvzapnfac2mtjr","1","60feda9a21964047d2a68b74","22","12/1998","In a relationship","English","Mandarin","Female","Asian","No","Undergraduate degree","No, currently not in school","N/A","N/A","N/A","9","9","7","1","0","0.5","stim/N000.jpg","76","65","0.483333334","3","1","3","","2","1","3","2","1","2","2","3","0","3","0","3","4","5","1","5","5","1","3","2","3","5","1","5","5","5","1","5","5","5","1","1","2","0","0","2","3","2","4","5","3","1","3","3","4","1","5","4","5","5","5","4","5","5","3","3","3","1","3","3","3","agree","2264.2000000029802","","","","","","","","<div style=""font-size:60px;"">?</div>","65","13","1","0.8"
"image-keyboard-response","60","268438","0.0-11.0-0.13","bfvzapnfac2mtjr","1","60feda9a21964047d2a68b74","22","12/1998","In a relationship","English","Mandarin","Female","Asian","No","Undergraduate degree","No, currently not in school","N/A","N/A","N/A","9","9","7","1","0","0.5","stim/N000.jpg","76","65","0.483333334","3","1","3","","2","1","3","2","1","2","2","3","0","3","0","3","4","5","1","5","5","1","3","2","3","5","1","5","5","5","1","5","5","5","1","1","2","0","0","2","3","2","4","5","3","1","3","3","4","1","5","4","5","5","5","4","5","5","3","3","3","1","3","3","3","agree","null","","","","","","","","stim/T050.jpg","null","","",""
"html-keyboard-response","61","268914","0.0-11.0-1.13","bfvzapnfac2mtjr","1","60feda9a21964047d2a68b74","22","12/1998","In a relationship","English","Mandarin","Female","Asian","No","Undergraduate degree","No, currently not in school","N/A","N/A","N/A","9","9","7","1","0","0.5","stim/N000.jpg","76","65","0.483333334","3","1","3","","2","1","3","2","1","2","2","3","0","3","0","3","4","5","1","5","5","1","3","2","3","5","1","5","5","5","1","5","5","5","1","1","2","0","0","2","3","2","4","5","3","1","3","3","4","1","5","4","5","5","5","4","5","5","3","3","3","1","3","3","3","agree","475.20000000298023","","","","","","","","<div style=""font-size:60px;"">?</div>","65","14","1","0.8"
"image-keyboard-response","62","269920","0.0-11.0-0.14","bfvzapnfac2mtjr","1","60feda9a21964047d2a68b74","22","12/1998","In a relationship","English","Mandarin","Female","Asian","No","Undergraduate degree","No, currently not in school","N/A","N/A","N/A","9","9","7","1","0","0.5","stim/N000.jpg","76","65","0.483333334","3","1","3","","2","1","3","2","1","2","2","3","0","3","0","3","4","5","1","5","5","1","3","2","3","5","1","5","5","5","1","5","5","5","1","1","2","0","0","2","3","2","4","5","3","1","3","3","4","1","5","4","5","5","5","4","5","5","3","3","3","1","3","3","3","agree","null","","","","","","","","stim/T180.jpg","null","","",""
"html-keyboard-response","63","270233","0.0-11.0-1.14","bfvzapnfac2mtjr","1","60feda9a21964047d2a68b74","22","12/1998","In a relationship","English","Mandarin","Female","Asian","No","Undergraduate degree","No, currently not in school","N/A","N/A","N/A","9","9","7","1","0","0.5","stim/N000.jpg","76","65","0.483333334","3","1","3","","2","1","3","2","1","2","2","3","0","3","0","3","4","5","1","5","5","1","3","2","3","5","1","5","5","5","1","5","5","5","1","1","2","0","0","2","3","2","4","5","3","1","3","3","4","1","5","4","5","5","5","4","5","5","3","3","3","1","3","3","3","agree","311.70000000298023","","","","","","","","<div style=""font-size:60px;"">?</div>","65","15","1","0.8"
"image-keyboard-response","64","271239","0.0-11.0-0.15","bfvzapnfac2mtjr","1","60feda9a21964047d2a68b74","22","12/1998","In a relationship","English","Mandarin","Female","Asian","No","Undergraduate degree","No, currently not in school","N/A","N/A","N/A","9","9","7","1","0","0.5","stim/N000.jpg","76","65","0.483333334","3","1","3","","2","1","3","2","1","2","2","3","0","3","0","3","4","5","1","5","5","1","3","2","3","5","1","5","5","5","1","5","5","5","1","1","2","0","0","2","3","2","4","5","3","1","3","3","4","1","5","4","5","5","5","4","5","5","3","3","3","1","3","3","3","agree","null","","","","","","","","stim/T060.jpg","null","","",""
"html-keyboard-response","65","271594","0.0-11.0-1.15","bfvzapnfac2mtjr","1","60feda9a21964047d2a68b74","22","12/1998","In a relationship","English","Mandarin","Female","Asian","No","Undergraduate degree","No, currently not in school","N/A","N/A","N/A","9","9","7","1","0","0.5","stim/N000.jpg","76","65","0.483333334","3","1","3","","2","1","3","2","1","2","2","3","0","3","0","3","4","5","1","5","5","1","3","2","3","5","1","5","5","5","1","5","5","5","1","1","2","0","0","2","3","2","4","5","3","1","3","3","4","1","5","4","5","5","5","4","5","5","3","3","3","1","3","3","3","agree","354.3999999910593","","","","","","","","<div style=""font-size:60px;"">?</div>","65","16","1","0.8"
"image-keyboard-response","66","272603","0.0-11.0-0.16","bfvzapnfac2mtjr","1","60feda9a21964047d2a68b74","22","12/1998","In a relationship","English","Mandarin","Female","Asian","No","Undergraduate degree","No, currently not in school","N/A","N/A","N/A","9","9","7","1","0","0.5","stim/N000.jpg","76","65","0.483333334","3","1","3","","2","1","3","2","1","2","2","3","0","3","0","3","4","5","1","5","5","1","3","2","3","5","1","5","5","5","1","5","5","5","1","1","2","0","0","2","3","2","4","5","3","1","3","3","4","1","5","4","5","5","5","4","5","5","3","3","3","1","3","3","3","agree","null","","","","","","","","stim/T030.jpg","null","","",""
"html-keyboard-response","67","273046","0.0-11.0-1.16","bfvzapnfac2mtjr","1","60feda9a21964047d2a68b74","22","12/1998","In a relationship","English","Mandarin","Female","Asian","No","Undergraduate degree","No, currently not in school","N/A","N/A","N/A","9","9","7","1","0","0.5","stim/N000.jpg","76","65","0.483333334","3","1","3","","2","1","3","2","1","2","2","3","0","3","0","3","4","5","1","5","5","1","3","2","3","5","1","5","5","5","1","5","5","5","1","1","2","0","0","2","3","2","4","5","3","1","3","3","4","1","5","4","5","5","5","4","5","5","3","3","3","1","3","3","3","agree","441.8999999910593","","","","","","","","<div style=""font-size:60px;"">?</div>","65","17","1","0.8"
"image-keyboard-response","68","274051","0.0-11.0-0.17","bfvzapnfac2mtjr","1","60feda9a21964047d2a68b74","22","12/1998","In a relationship","English","Mandarin","Female","Asian","No","Undergraduate degree","No, currently not in school","N/A","N/A","N/A","9","9","7","1","0","0.5","stim/N000.jpg","76","65","0.483333334","3","1","3","","2","1","3","2","1","2","2","3","0","3","0","3","4","5","1","5","5","1","3","2","3","5","1","5","5","5","1","5","5","5","1","1","2","0","0","2","3","2","4","5","3","1","3","3","4","1","5","4","5","5","5","4","5","5","3","3","3","1","3","3","3","agree","null","","","","","","","","stim/H080.jpg","null","","",""
"html-keyboard-response","69","274834","0.0-11.0-1.17","bfvzapnfac2mtjr","1","60feda9a21964047d2a68b74","22","12/1998","In a relationship","English","Mandarin","Female","Asian","No","Undergraduate degree","No, currently not in school","N/A","N/A","N/A","9","9","7","1","0","0.5","stim/N000.jpg","76","65","0.483333334","3","1","3","","2","1","3","2","1","2","2","3","0","3","0","3","4","5","1","5","5","1","3","2","3","5","1","5","5","5","1","5","5","5","1","1","2","0","0","2","3","2","4","5","3","1","3","3","4","1","5","4","5","5","5","4","5","5","3","3","3","1","3","3","3","agree","781.7999999970198","","","","","","","","<div style=""font-size:60px;"">?</div>","76","18","1","0.8"
"image-keyboard-response","70","275841","0.0-11.0-0.18","bfvzapnfac2mtjr","1","60feda9a21964047d2a68b74","22","12/1998","In a relationship","English","Mandarin","Female","Asian","No","Undergraduate degree","No, currently not in school","N/A","N/A","N/A","9","9","7","1","0","0.5","stim/N000.jpg","76","65","0.483333334","3","1","3","","2","1","3","2","1","2","2","3","0","3","0","3","4","5","1","5","5","1","3","2","3","5","1","5","5","5","1","5","5","5","1","1","2","0","0","2","3","2","4","5","3","1","3","3","4","1","5","4","5","5","5","4","5","5","3","3","3","1","3","3","3","agree","null","","","","","","","","stim/H290.jpg","null","","",""
"html-keyboard-response","71","276100","0.0-11.0-1.18","bfvzapnfac2mtjr","1","60feda9a21964047d2a68b74","22","12/1998","In a relationship","English","Mandarin","Female","Asian","No","Undergraduate degree","No, currently not in school","N/A","N/A","N/A","9","9","7","1","0","0.5","stim/N000.jpg","76","65","0.483333334","3","1","3","","2","1","3","2","1","2","2","3","0","3","0","3","4","5","1","5","5","1","3","2","3","5","1","5","5","5","1","5","5","5","1","1","2","0","0","2","3","2","4","5","3","1","3","3","4","1","5","4","5","5","5","4","5","5","3","3","3","1","3","3","3","agree","258.5","","","","","","","","<div style=""font-size:60px;"">?</div>","76","19","1","0.8"
"image-keyboard-response","72","277109","0.0-11.0-0.19","bfvzapnfac2mtjr","1","60feda9a21964047d2a68b74","22","12/1998","In a relationship","English","Mandarin","Female","Asian","No","Undergraduate degree","No, currently not in school","N/A","N/A","N/A","9","9","7","1","0","0.5","stim/N000.jpg","76","65","0.483333334","3","1","3","","2","1","3","2","1","2","2","3","0","3","0","3","4","5","1","5","5","1","3","2","3","5","1","5","5","5","1","5","5","5","1","1","2","0","0","2","3","2","4","5","3","1","3","3","4","1","5","4","5","5","5","4","5","5","3","3","3","1","3","3","3","agree","null","","","","","","","","stim/H140.jpg","null","","",""
"html-keyboard-response","73","277536","0.0-11.0-1.19","bfvzapnfac2mtjr","1","60feda9a21964047d2a68b74","22","12/1998","In a relationship","English","Mandarin","Female","Asian","No","Undergraduate degree","No, currently not in school","N/A","N/A","N/A","9","9","7","1","0","0.5","stim/N000.jpg","76","65","0.483333334","3","1","3","","2","1","3","2","1","2","2","3","0","3","0","3","4","5","1","5","5","1","3","2","3","5","1","5","5","5","1","5","5","5","1","1","2","0","0","2","3","2","4","5","3","1","3","3","4","1","5","4","5","5","5","4","5","5","3","3","3","1","3","3","3","agree","426.5","","","","","","","","<div style=""font-size:60px;"">?</div>","76","20","1","0.8"
"image-keyboard-response","74","278547","0.0-11.0-0.20","bfvzapnfac2mtjr","1","60feda9a21964047d2a68b74","22","12/1998","In a relationship","English","Mandarin","Female","Asian","No","Undergraduate degree","No, currently not in school","N/A","N/A","N/A","9","9","7","1","0","0.5","stim/N000.jpg","76","65","0.483333334","3","1","3","","2","1","3","2","1","2","2","3","0","3","0","3","4","5","1","5","5","1","3","2","3","5","1","5","5","5","1","5","5","5","1","1","2","0","0","2","3","2","4","5","3","1","3","3","4","1","5","4","5","5","5","4","5","5","3","3","3","1","3","3","3","agree","null","","","","","","","","stim/T110.jpg","null","","",""
"html-keyboard-response","75","278950","0.0-11.0-1.20","bfvzapnfac2mtjr","1","60feda9a21964047d2a68b74","22","12/1998","In a relationship","English","Mandarin","Female","Asian","No","Undergraduate degree","No, currently not in school","N/A","N/A","N/A","9","9","7","1","0","0.5","stim/N000.jpg","76","65","0.483333334","3","1","3","","2","1","3","2","1","2","2","3","0","3","0","3","4","5","1","5","5","1","3","2","3","5","1","5","5","5","1","5","5","5","1","1","2","0","0","2","3","2","4","5","3","1","3","3","4","1","5","4","5","5","5","4","5","5","3","3","3","1","3","3","3","agree","401.59999999403954","","","","","","","","<div style=""font-size:60px;"">?</div>","65","21","1","0.8"
"image-keyboard-response","76","279956","0.0-11.0-0.21","bfvzapnfac2mtjr","1","60feda9a21964047d2a68b74","22","12/1998","In a relationship","English","Mandarin","Female","Asian","No","Undergraduate degree","No, currently not in school","N/A","N/A","N/A","9","9","7","1","0","0.5","stim/N000.jpg","76","65","0.483333334","3","1","3","","2","1","3","2","1","2","2","3","0","3","0","3","4","5","1","5","5","1","3","2","3","5","1","5","5","5","1","5","5","5","1","1","2","0","0","2","3","2","4","5","3","1","3","3","4","1","5","4","5","5","5","4","5","5","3","3","3","1","3","3","3","agree","null","","","","","","","","stim/H250.jpg","null","","",""
"html-keyboard-response","77","280294","0.0-11.0-1.21","bfvzapnfac2mtjr","1","60feda9a21964047d2a68b74","22","12/1998","In a relationship","English","Mandarin","Female","Asian","No","Undergraduate degree","No, currently not in school","N/A","N/A","N/A","9","9","7","1","0","0.5","stim/N000.jpg","76","65","0.483333334","3","1","3","","2","1","3","2","1","2","2","3","0","3","0","3","4","5","1","5","5","1","3","2","3","5","1","5","5","5","1","5","5","5","1","1","2","0","0","2","3","2","4","5","3","1","3","3","4","1","5","4","5","5","5","4","5","5","3","3","3","1","3","3","3","agree","336.90000000596046","","","","","","","","<div style=""font-size:60px;"">?</div>","76","22","1","0.8"
"image-keyboard-response","78","281302","0.0-11.0-0.22","bfvzapnfac2mtjr","1","60feda9a21964047d2a68b74","22","12/1998","In a relationship","English","Mandarin","Female","Asian","No","Undergraduate degree","No, currently not in school","N/A","N/A","N/A","9","9","7","1","0","0.5","stim/N000.jpg","76","65","0.483333334","3","1","3","","2","1","3","2","1","2","2","3","0","3","0","3","4","5","1","5","5","1","3","2","3","5","1","5","5","5","1","5","5","5","1","1","2","0","0","2","3","2","4","5","3","1","3","3","4","1","5","4","5","5","5","4","5","5","3","3","3","1","3","3","3","agree","null","","","","","","","","stim/H110.jpg","null","","",""
"html-keyboard-response","79","281916","0.0-11.0-1.22","bfvzapnfac2mtjr","1","60feda9a21964047d2a68b74","22","12/1998","In a relationship","English","Mandarin","Female","Asian","No","Undergraduate degree","No, currently not in school","N/A","N/A","N/A","9","9","7","1","0","0.5","stim/N000.jpg","76","65","0.483333334","3","1","3","","2","1","3","2","1","2","2","3","0","3","0","3","4","5","1","5","5","1","3","2","3","5","1","5","5","5","1","5","5","5","1","1","2","0","0","2","3","2","4","5","3","1","3","3","4","1","5","4","5","5","5","4","5","5","3","3","3","1","3","3","3","agree","612.5999999940395","","","","","","","","<div style=""font-size:60px;"">?</div>","76","23","1","0.8"
"image-keyboard-response","80","282923","0.0-11.0-0.23","bfvzapnfac2mtjr","1","60feda9a21964047d2a68b74","22","12/1998","In a relationship","English","Mandarin","Female","Asian","No","Undergraduate degree","No, currently not in school","N/A","N/A","N/A","9","9","7","1","0","0.5","stim/N000.jpg","76","65","0.483333334","3","1","3","","2","1","3","2","1","2","2","3","0","3","0","3","4","5","1","5","5","1","3","2","3","5","1","5","5","5","1","5","5","5","1","1","2","0","0","2","3","2","4","5","3","1","3","3","4","1","5","4","5","5","5","4","5","5","3","3","3","1","3","3","3","agree","null","","","","","","","","stim/H290.jpg","null","","",""
"html-keyboard-response","81","283528","0.0-11.0-1.23","bfvzapnfac2mtjr","1","60feda9a21964047d2a68b74","22","12/1998","In a relationship","English","Mandarin","Female","Asian","No","Undergraduate degree","No, currently not in school","N/A","N/A","N/A","9","9","7","1","0","0.5","stim/N000.jpg","76","65","0.483333334","3","1","3","","2","1","3","2","1","2","2","3","0","3","0","3","4","5","1","5","5","1","3","2","3","5","1","5","5","5","1","5","5","5","1","1","2","0","0","2","3","2","4","5","3","1","3","3","4","1","5","4","5","5","5","4","5","5","3","3","3","1","3","3","3","agree","603.7999999970198","","","","","","","","<div style=""font-size:60px;"">?</div>","76","24","1","0.8"
"image-keyboard-response","82","284534","0.0-11.0-0.24","bfvzapnfac2mtjr","1","60feda9a21964047d2a68b74","22","12/1998","In a relationship","English","Mandarin","Female","Asian","No","Undergraduate degree","No, currently not in school","N/A","N/A","N/A","9","9","7","1","0","0.5","stim/N000.jpg","76","65","0.483333334","3","1","3","","2","1","3","2","1","2","2","3","0","3","0","3","4","5","1","5","5","1","3","2","3","5","1","5","5","5","1","5","5","5","1","1","2","0","0","2","3","2","4","5","3","1","3","3","4","1","5","4","5","5","5","4","5","5","3","3","3","1","3","3","3","agree","null","","","","","","","","stim/H260.jpg","null","","",""
"html-keyboard-response","83","284924","0.0-11.0-1.24","bfvzapnfac2mtjr","1","60feda9a21964047d2a68b74","22","12/1998","In a relationship","English","Mandarin","Female","Asian","No","Undergraduate degree","No, currently not in school","N/A","N/A","N/A","9","9","7","1","0","0.5","stim/N000.jpg","76","65","0.483333334","3","1","3","","2","1","3","2","1","2","2","3","0","3","0","3","4","5","1","5","5","1","3","2","3","5","1","5","5","5","1","5","5","5","1","1","2","0","0","2","3","2","4","5","3","1","3","3","4","1","5","4","5","5","5","4","5","5","3","3","3","1","3","3","3","agree","388.90000000596046","","","","","","","","<div style=""font-size:60px;"">?</div>","76","25","1","0.8"
"image-keyboard-response","84","285931","0.0-11.0-0.25","bfvzapnfac2mtjr","1","60feda9a21964047d2a68b74","22","12/1998","In a relationship","English","Mandarin","Female","Asian","No","Undergraduate degree","No, currently not in school","N/A","N/A","N/A","9","9","7","1","0","0.5","stim/N000.jpg","76","65","0.483333334","3","1","3","","2","1","3","2","1","2","2","3","0","3","0","3","4","5","1","5","5","1","3","2","3","5","1","5","5","5","1","5","5","5","1","1","2","0","0","2","3","2","4","5","3","1","3","3","4","1","5","4","5","5","5","4","5","5","3","3","3","1","3","3","3","agree","null","","","","","","","","stim/T200.jpg","null","","",""
"html-keyboard-response","85","286481","0.0-11.0-1.25","bfvzapnfac2mtjr","1","60feda9a21964047d2a68b74","22","12/1998","In a relationship","English","Mandarin","Female","Asian","No","Undergraduate degree","No, currently not in school","N/A","N/A","N/A","9","9","7","1","0","0.5","stim/N000.jpg","76","65","0.483333334","3","1","3","","2","1","3","2","1","2","2","3","0","3","0","3","4","5","1","5","5","1","3","2","3","5","1","5","5","5","1","5","5","5","1","1","2","0","0","2","3","2","4","5","3","1","3","3","4","1","5","4","5","5","5","4","5","5","3","3","3","1","3","3","3","agree","548.7000000029802","","","","","","","","<div style=""font-size:60px;"">?</div>","65","26","1","0.8"
"image-keyboard-response","86","287489","0.0-11.0-0.26","bfvzapnfac2mtjr","1","60feda9a21964047d2a68b74","22","12/1998","In a relationship","English","Mandarin","Female","Asian","No","Undergraduate degree","No, currently not in school","N/A","N/A","N/A","9","9","7","1","0","0.5","stim/N000.jpg","76","65","0.483333334","3","1","3","","2","1","3","2","1","2","2","3","0","3","0","3","4","5","1","5","5","1","3","2","3","5","1","5","5","5","1","5","5","5","1","1","2","0","0","2","3","2","4","5","3","1","3","3","4","1","5","4","5","5","5","4","5","5","3","3","3","1","3","3","3","agree","null","","","","","","","","stim/H300.jpg","null","","",""
"html-keyboard-response","87","288051","0.0-11.0-1.26","bfvzapnfac2mtjr","1","60feda9a21964047d2a68b74","22","12/1998","In a relationship","English","Mandarin","Female","Asian","No","Undergraduate degree","No, currently not in school","N/A","N/A","N/A","9","9","7","1","0","0.5","stim/N000.jpg","76","65","0.483333334","3","1","3","","2","1","3","2","1","2","2","3","0","3","0","3","4","5","1","5","5","1","3","2","3","5","1","5","5","5","1","5","5","5","1","1","2","0","0","2","3","2","4","5","3","1","3","3","4","1","5","4","5","5","5","4","5","5","3","3","3","1","3","3","3","agree","561","","","","","","","","<div style=""font-size:60px;"">?</div>","76","27","1","0.8"
"image-keyboard-response","88","289057","0.0-11.0-0.27","bfvzapnfac2mtjr","1","60feda9a21964047d2a68b74","22","12/1998","In a relationship","English","Mandarin","Female","Asian","No","Undergraduate degree","No, currently not in school","N/A","N/A","N/A","9","9","7","1","0","0.5","stim/N000.jpg","76","65","0.483333334","3","1","3","","2","1","3","2","1","2","2","3","0","3","0","3","4","5","1","5","5","1","3","2","3","5","1","5","5","5","1","5","5","5","1","1","2","0","0","2","3","2","4","5","3","1","3","3","4","1","5","4","5","5","5","4","5","5","3","3","3","1","3","3","3","agree","null","","","","","","","","stim/H270.jpg","null","","",""
"html-keyboard-response","89","289459","0.0-11.0-1.27","bfvzapnfac2mtjr","1","60feda9a21964047d2a68b74","22","12/1998","In a relationship","English","Mandarin","Female","Asian","No","Undergraduate degree","No, currently not in school","N/A","N/A","N/A","9","9","7","1","0","0.5","stim/N000.jpg","76","65","0.483333334","3","1","3","","2","1","3","2","1","2","2","3","0","3","0","3","4","5","1","5","5","1","3","2","3","5","1","5","5","5","1","5","5","5","1","1","2","0","0","2","3","2","4","5","3","1","3","3","4","1","5","4","5","5","5","4","5","5","3","3","3","1","3","3","3","agree","400.80000001192093","","","","","","","","<div style=""font-size:60px;"">?</div>","76","28","1","0.8"
"image-keyboard-response","90","290470","0.0-11.0-0.28","bfvzapnfac2mtjr","1","60feda9a21964047d2a68b74","22","12/1998","In a relationship","English","Mandarin","Female","Asian","No","Undergraduate degree","No, currently not in school","N/A","N/A","N/A","9","9","7","1","0","0.5","stim/N000.jpg","76","65","0.483333334","3","1","3","","2","1","3","2","1","2","2","3","0","3","0","3","4","5","1","5","5","1","3","2","3","5","1","5","5","5","1","5","5","5","1","1","2","0","0","2","3","2","4","5","3","1","3","3","4","1","5","4","5","5","5","4","5","5","3","3","3","1","3","3","3","agree","null","","","","","","","","stim/H230.jpg","null","","",""
"html-keyboard-response","91","290976","0.0-11.0-1.28","bfvzapnfac2mtjr","1","60feda9a21964047d2a68b74","22","12/1998","In a relationship","English","Mandarin","Female","Asian","No","Undergraduate degree","No, currently not in school","N/A","N/A","N/A","9","9","7","1","0","0.5","stim/N000.jpg","76","65","0.483333334","3","1","3","","2","1","3","2","1","2","2","3","0","3","0","3","4","5","1","5","5","1","3","2","3","5","1","5","5","5","1","5","5","5","1","1","2","0","0","2","3","2","4","5","3","1","3","3","4","1","5","4","5","5","5","4","5","5","3","3","3","1","3","3","3","agree","505.20000000298023","","","","","","","","<div style=""font-size:60px;"">?</div>","76","29","1","0.8"
"image-keyboard-response","92","291981","0.0-11.0-0.29","bfvzapnfac2mtjr","1","60feda9a21964047d2a68b74","22","12/1998","In a relationship","English","Mandarin","Female","Asian","No","Undergraduate degree","No, currently not in school","N/A","N/A","N/A","9","9","7","1","0","0.5","stim/N000.jpg","76","65","0.483333334","3","1","3","","2","1","3","2","1","2","2","3","0","3","0","3","4","5","1","5","5","1","3","2","3","5","1","5","5","5","1","5","5","5","1","1","2","0","0","2","3","2","4","5","3","1","3","3","4","1","5","4","5","5","5","4","5","5","3","3","3","1","3","3","3","agree","null","","","","","","","","stim/H230.jpg","null","","",""
"html-keyboard-response","93","292306","0.0-11.0-1.29","bfvzapnfac2mtjr","1","60feda9a21964047d2a68b74","22","12/1998","In a relationship","English","Mandarin","Female","Asian","No","Undergraduate degree","No, currently not in school","N/A","N/A","N/A","9","9","7","1","0","0.5","stim/N000.jpg","76","65","0.483333334","3","1","3","","2","1","3","2","1","2","2","3","0","3","0","3","4","5","1","5","5","1","3","2","3","5","1","5","5","5","1","5","5","5","1","1","2","0","0","2","3","2","4","5","3","1","3","3","4","1","5","4","5","5","5","4","5","5","3","3","3","1","3","3","3","agree","323.59999999403954","","","","","","","","<div style=""font-size:60px;"">?</div>","76","30","1","0.8"
"image-keyboard-response","94","293309","0.0-11.0-0.30","bfvzapnfac2mtjr","1","60feda9a21964047d2a68b74","22","12/1998","In a relationship","English","Mandarin","Female","Asian","No","Undergraduate degree","No, currently not in school","N/A","N/A","N/A","9","9","7","1","0","0.5","stim/N000.jpg","76","65","0.483333334","3","1","3","","2","1","3","2","1","2","2","3","0","3","0","3","4","5","1","5","5","1","3","2","3","5","1","5","5","5","1","5","5","5","1","1","2","0","0","2","3","2","4","5","3","1","3","3","4","1","5","4","5","5","5","4","5","5","3","3","3","1","3","3","3","agree","null","","","","","","","","stim/H040.jpg","null","","",""
"html-keyboard-response","95","293729","0.0-11.0-1.30","bfvzapnfac2mtjr","1","60feda9a21964047d2a68b74","22","12/1998","In a relationship","English","Mandarin","Female","Asian","No","Undergraduate degree","No, currently not in school","N/A","N/A","N/A","9","9","7","1","0","0.5","stim/N000.jpg","76","65","0.483333334","3","1","3","","2","1","3","2","1","2","2","3","0","3","0","3","4","5","1","5","5","1","3","2","3","5","1","5","5","5","1","5","5","5","1","1","2","0","0","2","3","2","4","5","3","1","3","3","4","1","5","4","5","5","5","4","5","5","3","3","3","1","3","3","3","agree","418.29999999701977","","","","","","","","<div style=""font-size:60px;"">?</div>","65","31","1","0.8"
"image-keyboard-response","96","294734","0.0-11.0-0.31","bfvzapnfac2mtjr","1","60feda9a21964047d2a68b74","22","12/1998","In a relationship","English","Mandarin","Female","Asian","No","Undergraduate degree","No, currently not in school","N/A","N/A","N/A","9","9","7","1","0","0.5","stim/N000.jpg","76","65","0.483333334","3","1","3","","2","1","3","2","1","2","2","3","0","3","0","3","4","5","1","5","5","1","3","2","3","5","1","5","5","5","1","5","5","5","1","1","2","0","0","2","3","2","4","5","3","1","3","3","4","1","5","4","5","5","5","4","5","5","3","3","3","1","3","3","3","agree","null","","","","","","","","stim/H240.jpg","null","","",""
"html-keyboard-response","97","295071","0.0-11.0-1.31","bfvzapnfac2mtjr","1","60feda9a21964047d2a68b74","22","12/1998","In a relationship","English","Mandarin","Female","Asian","No","Undergraduate degree","No, currently not in school","N/A","N/A","N/A","9","9","7","1","0","0.5","stim/N000.jpg","76","65","0.483333334","3","1","3","","2","1","3","2","1","2","2","3","0","3","0","3","4","5","1","5","5","1","3","2","3","5","1","5","5","5","1","5","5","5","1","1","2","0","0","2","3","2","4","5","3","1","3","3","4","1","5","4","5","5","5","4","5","5","3","3","3","1","3","3","3","agree","335.79999999701977","","","","","","","","<div style=""font-size:60px;"">?</div>","76","32","1","0.8"
"image-keyboard-response","98","296075","0.0-11.0-0.32","bfvzapnfac2mtjr","1","60feda9a21964047d2a68b74","22","12/1998","In a relationship","English","Mandarin","Female","Asian","No","Undergraduate degree","No, currently not in school","N/A","N/A","N/A","9","9","7","1","0","0.5","stim/N000.jpg","76","65","0.483333334","3","1","3","","2","1","3","2","1","2","2","3","0","3","0","3","4","5","1","5","5","1","3","2","3","5","1","5","5","5","1","5","5","5","1","1","2","0","0","2","3","2","4","5","3","1","3","3","4","1","5","4","5","5","5","4","5","5","3","3","3","1","3","3","3","agree","null","","","","","","","","stim/H030.jpg","null","","",""
"html-keyboard-response","99","296617","0.0-11.0-1.32","bfvzapnfac2mtjr","1","60feda9a21964047d2a68b74","22","12/1998","In a relationship","English","Mandarin","Female","Asian","No","Undergraduate degree","No, currently not in school","N/A","N/A","N/A","9","9","7","1","0","0.5","stim/N000.jpg","76","65","0.483333334","3","1","3","","2","1","3","2","1","2","2","3","0","3","0","3","4","5","1","5","5","1","3","2","3","5","1","5","5","5","1","5","5","5","1","1","2","0","0","2","3","2","4","5","3","1","3","3","4","1","5","4","5","5","5","4","5","5","3","3","3","1","3","3","3","agree","540.7000000029802","","","","","","","","<div style=""font-size:60px;"">?</div>","65","33","1","0.8"
"image-keyboard-response","100","297623","0.0-11.0-0.33","bfvzapnfac2mtjr","1","60feda9a21964047d2a68b74","22","12/1998","In a relationship","English","Mandarin","Female","Asian","No","Undergraduate degree","No, currently not in school","N/A","N/A","N/A","9","9","7","1","0","0.5","stim/N000.jpg","76","65","0.483333334","3","1","3","","2","1","3","2","1","2","2","3","0","3","0","3","4","5","1","5","5","1","3","2","3","5","1","5","5","5","1","5","5","5","1","1","2","0","0","2","3","2","4","5","3","1","3","3","4","1","5","4","5","5","5","4","5","5","3","3","3","1","3","3","3","agree","null","","","","","","","","stim/H240.jpg","null","","",""
"html-keyboard-response","101","297915","0.0-11.0-1.33","bfvzapnfac2mtjr","1","60feda9a21964047d2a68b74","22","12/1998","In a relationship","English","Mandarin","Female","Asian","No","Undergraduate degree","No, currently not in school","N/A","N/A","N/A","9","9","7","1","0","0.5","stim/N000.jpg","76","65","0.483333334","3","1","3","","2","1","3","2","1","2","2","3","0","3","0","3","4","5","1","5","5","1","3","2","3","5","1","5","5","5","1","5","5","5","1","1","2","0","0","2","3","2","4","5","3","1","3","3","4","1","5","4","5","5","5","4","5","5","3","3","3","1","3","3","3","agree","291.29999999701977","","","","","","","","<div style=""font-size:60px;"">?</div>","76","34","1","0.8"
"image-keyboard-response","102","298920","0.0-11.0-0.34","bfvzapnfac2mtjr","1","60feda9a21964047d2a68b74","22","12/1998","In a relationship","English","Mandarin","Female","Asian","No","Undergraduate degree","No, currently not in school","N/A","N/A","N/A","9","9","7","1","0","0.5","stim/N000.jpg","76","65","0.483333334","3","1","3","","2","1","3","2","1","2","2","3","0","3","0","3","4","5","1","5","5","1","3","2","3","5","1","5","5","5","1","5","5","5","1","1","2","0","0","2","3","2","4","5","3","1","3","3","4","1","5","4","5","5","5","4","5","5","3","3","3","1","3","3","3","agree","null","","","","","","","","stim/H280.jpg","null","","",""
"html-keyboard-response","103","299272","0.0-11.0-1.34","bfvzapnfac2mtjr","1","60feda9a21964047d2a68b74","22","12/1998","In a relationship","English","Mandarin","Female","Asian","No","Undergraduate degree","No, currently not in school","N/A","N/A","N/A","9","9","7","1","0","0.5","stim/N000.jpg","76","65","0.483333334","3","1","3","","2","1","3","2","1","2","2","3","0","3","0","3","4","5","1","5","5","1","3","2","3","5","1","5","5","5","1","5","5","5","1","1","2","0","0","2","3","2","4","5","3","1","3","3","4","1","5","4","5","5","5","4","5","5","3","3","3","1","3","3","3","agree","350.80000001192093","","","","","","","","<div style=""font-size:60px;"">?</div>","76","35","1","0.8"
"image-keyboard-response","104","300281","0.0-11.0-0.35","bfvzapnfac2mtjr","1","60feda9a21964047d2a68b74","22","12/1998","In a relationship","English","Mandarin","Female","Asian","No","Undergraduate degree","No, currently not in school","N/A","N/A","N/A","9","9","7","1","0","0.5","stim/N000.jpg","76","65","0.483333334","3","1","3","","2","1","3","2","1","2","2","3","0","3","0","3","4","5","1","5","5","1","3","2","3","5","1","5","5","5","1","5","5","5","1","1","2","0","0","2","3","2","4","5","3","1","3","3","4","1","5","4","5","5","5","4","5","5","3","3","3","1","3","3","3","agree","null","","","","","","","","stim/H230.jpg","null","","",""
"html-keyboard-response","105","300657","0.0-11.0-1.35","bfvzapnfac2mtjr","1","60feda9a21964047d2a68b74","22","12/1998","In a relationship","English","Mandarin","Female","Asian","No","Undergraduate degree","No, currently not in school","N/A","N/A","N/A","9","9","7","1","0","0.5","stim/N000.jpg","76","65","0.483333334","3","1","3","","2","1","3","2","1","2","2","3","0","3","0","3","4","5","1","5","5","1","3","2","3","5","1","5","5","5","1","5","5","5","1","1","2","0","0","2","3","2","4","5","3","1","3","3","4","1","5","4","5","5","5","4","5","5","3","3","3","1","3","3","3","agree","375.09999999403954","","","","","","","","<div style=""font-size:60px;"">?</div>","76","36","1","0.8"
"image-keyboard-response","106","301667","0.0-11.0-0.36","bfvzapnfac2mtjr","1","60feda9a21964047d2a68b74","22","12/1998","In a relationship","English","Mandarin","Female","Asian","No","Undergraduate degree","No, currently not in school","N/A","N/A","N/A","9","9","7","1","0","0.5","stim/N000.jpg","76","65","0.483333334","3","1","3","","2","1","3","2","1","2","2","3","0","3","0","3","4","5","1","5","5","1","3","2","3","5","1","5","5","5","1","5","5","5","1","1","2","0","0","2","3","2","4","5","3","1","3","3","4","1","5","4","5","5","5","4","5","5","3","3","3","1","3","3","3","agree","null","","","","","","","","stim/H030.jpg","null","","",""
"html-keyboard-response","107","303138","0.0-11.0-1.36","bfvzapnfac2mtjr","1","60feda9a21964047d2a68b74","22","12/1998","In a relationship","English","Mandarin","Female","Asian","No","Undergraduate degree","No, currently not in school","N/A","N/A","N/A","9","9","7","1","0","0.5","stim/N000.jpg","76","65","0.483333334","3","1","3","","2","1","3","2","1","2","2","3","0","3","0","3","4","5","1","5","5","1","3","2","3","5","1","5","5","5","1","5","5","5","1","1","2","0","0","2","3","2","4","5","3","1","3","3","4","1","5","4","5","5","5","4","5","5","3","3","3","1","3","3","3","agree","1470.300000011921","","","","","","","","<div style=""font-size:60px;"">?</div>","65","37","1","0.8"
"image-keyboard-response","108","304143","0.0-11.0-0.37","bfvzapnfac2mtjr","1","60feda9a21964047d2a68b74","22","12/1998","In a relationship","English","Mandarin","Female","Asian","No","Undergraduate degree","No, currently not in school","N/A","N/A","N/A","9","9","7","1","0","0.5","stim/N000.jpg","76","65","0.483333334","3","1","3","","2","1","3","2","1","2","2","3","0","3","0","3","4","5","1","5","5","1","3","2","3","5","1","5","5","5","1","5","5","5","1","1","2","0","0","2","3","2","4","5","3","1","3","3","4","1","5","4","5","5","5","4","5","5","3","3","3","1","3","3","3","agree","null","","","","","","","","stim/H050.jpg","null","","",""
"html-keyboard-response","109","305207","0.0-11.0-1.37","bfvzapnfac2mtjr","1","60feda9a21964047d2a68b74","22","12/1998","In a relationship","English","Mandarin","Female","Asian","No","Undergraduate degree","No, currently not in school","N/A","N/A","N/A","9","9","7","1","0","0.5","stim/N000.jpg","76","65","0.483333334","3","1","3","","2","1","3","2","1","2","2","3","0","3","0","3","4","5","1","5","5","1","3","2","3","5","1","5","5","5","1","5","5","5","1","1","2","0","0","2","3","2","4","5","3","1","3","3","4","1","5","4","5","5","5","4","5","5","3","3","3","1","3","3","3","agree","1062.5","","","","","","","","<div style=""font-size:60px;"">?</div>","76","38","1","0.8"
"image-keyboard-response","110","306213","0.0-11.0-0.38","bfvzapnfac2mtjr","1","60feda9a21964047d2a68b74","22","12/1998","In a relationship","English","Mandarin","Female","Asian","No","Undergraduate degree","No, currently not in school","N/A","N/A","N/A","9","9","7","1","0","0.5","stim/N000.jpg","76","65","0.483333334","3","1","3","","2","1","3","2","1","2","2","3","0","3","0","3","4","5","1","5","5","1","3","2","3","5","1","5","5","5","1","5","5","5","1","1","2","0","0","2","3","2","4","5","3","1","3","3","4","1","5","4","5","5","5","4","5","5","3","3","3","1","3","3","3","agree","null","","","","","","","","stim/H260.jpg","null","","",""
"html-keyboard-response","111","306548","0.0-11.0-1.38","bfvzapnfac2mtjr","1","60feda9a21964047d2a68b74","22","12/1998","In a relationship","English","Mandarin","Female","Asian","No","Undergraduate degree","No, currently not in school","N/A","N/A","N/A","9","9","7","1","0","0.5","stim/N000.jpg","76","65","0.483333334","3","1","3","","2","1","3","2","1","2","2","3","0","3","0","3","4","5","1","5","5","1","3","2","3","5","1","5","5","5","1","5","5","5","1","1","2","0","0","2","3","2","4","5","3","1","3","3","4","1","5","4","5","5","5","4","5","5","3","3","3","1","3","3","3","agree","333.70000000298023","","","","","","","","<div style=""font-size:60px;"">?</div>","76","39","1","0.8"
"image-keyboard-response","112","307556","0.0-11.0-0.39","bfvzapnfac2mtjr","1","60feda9a21964047d2a68b74","22","12/1998","In a relationship","English","Mandarin","Female","Asian","No","Undergraduate degree","No, currently not in school","N/A","N/A","N/A","9","9","7","1","0","0.5","stim/N000.jpg","76","65","0.483333334","3","1","3","","2","1","3","2","1","2","2","3","0","3","0","3","4","5","1","5","5","1","3","2","3","5","1","5","5","5","1","5","5","5","1","1","2","0","0","2","3","2","4","5","3","1","3","3","4","1","5","4","5","5","5","4","5","5","3","3","3","1","3","3","3","agree","null","","","","","","","","stim/H130.jpg","null","","",""
"html-keyboard-response","113","308089","0.0-11.0-1.39","bfvzapnfac2mtjr","1","60feda9a21964047d2a68b74","22","12/1998","In a relationship","English","Mandarin","Female","Asian","No","Undergraduate degree","No, currently not in school","N/A","N/A","N/A","9","9","7","1","0","0.5","stim/N000.jpg","76","65","0.483333334","3","1","3","","2","1","3","2","1","2","2","3","0","3","0","3","4","5","1","5","5","1","3","2","3","5","1","5","5","5","1","5","5","5","1","1","2","0","0","2","3","2","4","5","3","1","3","3","4","1","5","4","5","5","5","4","5","5","3","3","3","1","3","3","3","agree","532","","","","","","","","<div style=""font-size:60px;"">?</div>","76","40","1","0.8"
"image-keyboard-response","114","309098","0.0-11.0-0.40","bfvzapnfac2mtjr","1","60feda9a21964047d2a68b74","22","12/1998","In a relationship","English","Mandarin","Female","Asian","No","Undergraduate degree","No, currently not in school","N/A","N/A","N/A","9","9","7","1","0","0.5","stim/N000.jpg","76","65","0.483333334","3","1","3","","2","1","3","2","1","2","2","3","0","3","0","3","4","5","1","5","5","1","3","2","3","5","1","5","5","5","1","5","5","5","1","1","2","0","0","2","3","2","4","5","3","1","3","3","4","1","5","4","5","5","5","4","5","5","3","3","3","1","3","3","3","agree","null","","","","","","","","stim/H290.jpg","null","","",""
"html-keyboard-response","115","309360","0.0-11.0-1.40","bfvzapnfac2mtjr","1","60feda9a21964047d2a68b74","22","12/1998","In a relationship","English","Mandarin","Female","Asian","No","Undergraduate degree","No, currently not in school","N/A","N/A","N/A","9","9","7","1","0","0.5","stim/N000.jpg","76","65","0.483333334","3","1","3","","2","1","3","2","1","2","2","3","0","3","0","3","4","5","1","5","5","1","3","2","3","5","1","5","5","5","1","5","5","5","1","1","2","0","0","2","3","2","4","5","3","1","3","3","4","1","5","4","5","5","5","4","5","5","3","3","3","1","3","3","3","agree","260.8999999910593","","","","","","","","<div style=""font-size:60px;"">?</div>","76","41","1","0.8"
"image-keyboard-response","116","310367","0.0-11.0-0.41","bfvzapnfac2mtjr","1","60feda9a21964047d2a68b74","22","12/1998","In a relationship","English","Mandarin","Female","Asian","No","Undergraduate degree","No, currently not in school","N/A","N/A","N/A","9","9","7","1","0","0.5","stim/N000.jpg","76","65","0.483333334","3","1","3","","2","1","3","2","1","2","2","3","0","3","0","3","4","5","1","5","5","1","3","2","3","5","1","5","5","5","1","5","5","5","1","1","2","0","0","2","3","2","4","5","3","1","3","3","4","1","5","4","5","5","5","4","5","5","3","3","3","1","3","3","3","agree","null","","","","","","","","stim/H030.jpg","null","","",""
"html-keyboard-response","117","310849","0.0-11.0-1.41","bfvzapnfac2mtjr","1","60feda9a21964047d2a68b74","22","12/1998","In a relationship","English","Mandarin","Female","Asian","No","Undergraduate degree","No, currently not in school","N/A","N/A","N/A","9","9","7","1","0","0.5","stim/N000.jpg","76","65","0.483333334","3","1","3","","2","1","3","2","1","2","2","3","0","3","0","3","4","5","1","5","5","1","3","2","3","5","1","5","5","5","1","5","5","5","1","1","2","0","0","2","3","2","4","5","3","1","3","3","4","1","5","4","5","5","5","4","5","5","3","3","3","1","3","3","3","agree","480.70000000298023","","","","","","","","<div style=""font-size:60px;"">?</div>","65","42","1","0.8"
"image-keyboard-response","118","311856","0.0-11.0-0.42","bfvzapnfac2mtjr","1","60feda9a21964047d2a68b74","22","12/1998","In a relationship","English","Mandarin","Female","Asian","No","Undergraduate degree","No, currently not in school","N/A","N/A","N/A","9","9","7","1","0","0.5","stim/N000.jpg","76","65","0.483333334","3","1","3","","2","1","3","2","1","2","2","3","0","3","0","3","4","5","1","5","5","1","3","2","3","5","1","5","5","5","1","5","5","5","1","1","2","0","0","2","3","2","4","5","3","1","3","3","4","1","5","4","5","5","5","4","5","5","3","3","3","1","3","3","3","agree","null","","","","","","","","stim/H300.jpg","null","","",""
"html-keyboard-response","119","312280","0.0-11.0-1.42","bfvzapnfac2mtjr","1","60feda9a21964047d2a68b74","22","12/1998","In a relationship","English","Mandarin","Female","Asian","No","Undergraduate degree","No, currently not in school","N/A","N/A","N/A","9","9","7","1","0","0.5","stim/N000.jpg","76","65","0.483333334","3","1","3","","2","1","3","2","1","2","2","3","0","3","0","3","4","5","1","5","5","1","3","2","3","5","1","5","5","5","1","5","5","5","1","1","2","0","0","2","3","2","4","5","3","1","3","3","4","1","5","4","5","5","5","4","5","5","3","3","3","1","3","3","3","agree","423.20000000298023","","","","","","","","<div style=""font-size:60px;"">?</div>","76","43","1","0.8"
"image-keyboard-response","120","313283","0.0-11.0-0.43","bfvzapnfac2mtjr","1","60feda9a21964047d2a68b74","22","12/1998","In a relationship","English","Mandarin","Female","Asian","No","Undergraduate degree","No, currently not in school","N/A","N/A","N/A","9","9","7","1","0","0.5","stim/N000.jpg","76","65","0.483333334","3","1","3","","2","1","3","2","1","2","2","3","0","3","0","3","4","5","1","5","5","1","3","2","3","5","1","5","5","5","1","5","5","5","1","1","2","0","0","2","3","2","4","5","3","1","3","3","4","1","5","4","5","5","5","4","5","5","3","3","3","1","3","3","3","agree","null","","","","","","","","stim/H290.jpg","null","","",""
"html-keyboard-response","121","313669","0.0-11.0-1.43","bfvzapnfac2mtjr","1","60feda9a21964047d2a68b74","22","12/1998","In a relationship","English","Mandarin","Female","Asian","No","Undergraduate degree","No, currently not in school","N/A","N/A","N/A","9","9","7","1","0","0.5","stim/N000.jpg","76","65","0.483333334","3","1","3","","2","1","3","2","1","2","2","3","0","3","0","3","4","5","1","5","5","1","3","2","3","5","1","5","5","5","1","5","5","5","1","1","2","0","0","2","3","2","4","5","3","1","3","3","4","1","5","4","5","5","5","4","5","5","3","3","3","1","3","3","3","agree","385.09999999403954","","","","","","","","<div style=""font-size:60px;"">?</div>","76","44","1","0.8"
"image-keyboard-response","122","314675","0.0-11.0-0.44","bfvzapnfac2mtjr","1","60feda9a21964047d2a68b74","22","12/1998","In a relationship","English","Mandarin","Female","Asian","No","Undergraduate degree","No, currently not in school","N/A","N/A","N/A","9","9","7","1","0","0.5","stim/N000.jpg","76","65","0.483333334","3","1","3","","2","1","3","2","1","2","2","3","0","3","0","3","4","5","1","5","5","1","3","2","3","5","1","5","5","5","1","5","5","5","1","1","2","0","0","2","3","2","4","5","3","1","3","3","4","1","5","4","5","5","5","4","5","5","3","3","3","1","3","3","3","agree","null","","","","","","","","stim/H140.jpg","null","","",""
"html-keyboard-response","123","315123","0.0-11.0-1.44","bfvzapnfac2mtjr","1","60feda9a21964047d2a68b74","22","12/1998","In a relationship","English","Mandarin","Female","Asian","No","Undergraduate degree","No, currently not in school","N/A","N/A","N/A","9","9","7","1","0","0.5","stim/N000.jpg","76","65","0.483333334","3","1","3","","2","1","3","2","1","2","2","3","0","3","0","3","4","5","1","5","5","1","3","2","3","5","1","5","5","5","1","5","5","5","1","1","2","0","0","2","3","2","4","5","3","1","3","3","4","1","5","4","5","5","5","4","5","5","3","3","3","1","3","3","3","agree","447.09999999403954","","","","","","","","<div style=""font-size:60px;"">?</div>","76","45","1","0.8"
"image-keyboard-response","124","316129","0.0-11.0-0.45","bfvzapnfac2mtjr","1","60feda9a21964047d2a68b74","22","12/1998","In a relationship","English","Mandarin","Female","Asian","No","Undergraduate degree","No, currently not in school","N/A","N/A","N/A","9","9","7","1","0","0.5","stim/N000.jpg","76","65","0.483333334","3","1","3","","2","1","3","2","1","2","2","3","0","3","0","3","4","5","1","5","5","1","3","2","3","5","1","5","5","5","1","5","5","5","1","1","2","0","0","2","3","2","4","5","3","1","3","3","4","1","5","4","5","5","5","4","5","5","3","3","3","1","3","3","3","agree","null","","","","","","","","stim/H290.jpg","null","","",""
"html-keyboard-response","125","316445","0.0-11.0-1.45","bfvzapnfac2mtjr","1","60feda9a21964047d2a68b74","22","12/1998","In a relationship","English","Mandarin","Female","Asian","No","Undergraduate degree","No, currently not in school","N/A","N/A","N/A","9","9","7","1","0","0.5","stim/N000.jpg","76","65","0.483333334","3","1","3","","2","1","3","2","1","2","2","3","0","3","0","3","4","5","1","5","5","1","3","2","3","5","1","5","5","5","1","5","5","5","1","1","2","0","0","2","3","2","4","5","3","1","3","3","4","1","5","4","5","5","5","4","5","5","3","3","3","1","3","3","3","agree","315.29999999701977","","","","","","","","<div style=""font-size:60px;"">?</div>","76","46","1","0.8"
"image-keyboard-response","126","317447","0.0-11.0-0.46","bfvzapnfac2mtjr","1","60feda9a21964047d2a68b74","22","12/1998","In a relationship","English","Mandarin","Female","Asian","No","Undergraduate degree","No, currently not in school","N/A","N/A","N/A","9","9","7","1","0","0.5","stim/N000.jpg","76","65","0.483333334","3","1","3","","2","1","3","2","1","2","2","3","0","3","0","3","4","5","1","5","5","1","3","2","3","5","1","5","5","5","1","5","5","5","1","1","2","0","0","2","3","2","4","5","3","1","3","3","4","1","5","4","5","5","5","4","5","5","3","3","3","1","3","3","3","agree","null","","","","","","","","stim/T220.jpg","null","","",""
"html-keyboard-response","127","317997","0.0-11.0-1.46","bfvzapnfac2mtjr","1","60feda9a21964047d2a68b74","22","12/1998","In a relationship","English","Mandarin","Female","Asian","No","Undergraduate degree","No, currently not in school","N/A","N/A","N/A","9","9","7","1","0","0.5","stim/N000.jpg","76","65","0.483333334","3","1","3","","2","1","3","2","1","2","2","3","0","3","0","3","4","5","1","5","5","1","3","2","3","5","1","5","5","5","1","5","5","5","1","1","2","0","0","2","3","2","4","5","3","1","3","3","4","1","5","4","5","5","5","4","5","5","3","3","3","1","3","3","3","agree","548.7999999970198","","","","","","","","<div style=""font-size:60px;"">?</div>","65","47","1","0.8"
"image-keyboard-response","128","319002","0.0-11.0-0.47","bfvzapnfac2mtjr","1","60feda9a21964047d2a68b74","22","12/1998","In a relationship","English","Mandarin","Female","Asian","No","Undergraduate degree","No, currently not in school","N/A","N/A","N/A","9","9","7","1","0","0.5","stim/N000.jpg","76","65","0.483333334","3","1","3","","2","1","3","2","1","2","2","3","0","3","0","3","4","5","1","5","5","1","3","2","3","5","1","5","5","5","1","5","5","5","1","1","2","0","0","2","3","2","4","5","3","1","3","3","4","1","5","4","5","5","5","4","5","5","3","3","3","1","3","3","3","agree","null","","","","","","","","stim/H030.jpg","null","","",""
"html-keyboard-response","129","319868","0.0-11.0-1.47","bfvzapnfac2mtjr","1","60feda9a21964047d2a68b74","22","12/1998","In a relationship","English","Mandarin","Female","Asian","No","Undergraduate degree","No, currently not in school","N/A","N/A","N/A","9","9","7","1","0","0.5","stim/N000.jpg","76","65","0.483333334","3","1","3","","2","1","3","2","1","2","2","3","0","3","0","3","4","5","1","5","5","1","3","2","3","5","1","5","5","5","1","5","5","5","1","1","2","0","0","2","3","2","4","5","3","1","3","3","4","1","5","4","5","5","5","4","5","5","3","3","3","1","3","3","3","agree","865.2000000029802","","","","","","","","<div style=""font-size:60px;"">?</div>","65","48","1","0.8"
"image-keyboard-response","130","320875","0.0-11.0-0.48","bfvzapnfac2mtjr","1","60feda9a21964047d2a68b74","22","12/1998","In a relationship","English","Mandarin","Female","Asian","No","Undergraduate degree","No, currently not in school","N/A","N/A","N/A","9","9","7","1","0","0.5","stim/N000.jpg","76","65","0.483333334","3","1","3","","2","1","3","2","1","2","2","3","0","3","0","3","4","5","1","5","5","1","3","2","3","5","1","5","5","5","1","5","5","5","1","1","2","0","0","2","3","2","4","5","3","1","3","3","4","1","5","4","5","5","5","4","5","5","3","3","3","1","3","3","3","agree","null","","","","","","","","stim/H110.jpg","null","","",""
"html-keyboard-response","131","321190","0.0-11.0-1.48","bfvzapnfac2mtjr","1","60feda9a21964047d2a68b74","22","12/1998","In a relationship","English","Mandarin","Female","Asian","No","Undergraduate degree","No, currently not in school","N/A","N/A","N/A","9","9","7","1","0","0.5","stim/N000.jpg","76","65","0.483333334","3","1","3","","2","1","3","2","1","2","2","3","0","3","0","3","4","5","1","5","5","1","3","2","3","5","1","5","5","5","1","5","5","5","1","1","2","0","0","2","3","2","4","5","3","1","3","3","4","1","5","4","5","5","5","4","5","5","3","3","3","1","3","3","3","agree","314.20000000298023","","","","","","","","<div style=""font-size:60px;"">?</div>","76","49","1","0.8"
"image-keyboard-response","132","322197","0.0-11.0-0.49","bfvzapnfac2mtjr","1","60feda9a21964047d2a68b74","22","12/1998","In a relationship","English","Mandarin","Female","Asian","No","Undergraduate degree","No, currently not in school","N/A","N/A","N/A","9","9","7","1","0","0.5","stim/N000.jpg","76","65","0.483333334","3","1","3","","2","1","3","2","1","2","2","3","0","3","0","3","4","5","1","5","5","1","3","2","3","5","1","5","5","5","1","5","5","5","1","1","2","0","0","2","3","2","4","5","3","1","3","3","4","1","5","4","5","5","5","4","5","5","3","3","3","1","3","3","3","agree","null","","","","","","","","stim/T070.jpg","null","","",""
"html-keyboard-response","133","322646","0.0-11.0-1.49","bfvzapnfac2mtjr","1","60feda9a21964047d2a68b74","22","12/1998","In a relationship","English","Mandarin","Female","Asian","No","Undergraduate degree","No, currently not in school","N/A","N/A","N/A","9","9","7","1","0","0.5","stim/N000.jpg","76","65","0.483333334","3","1","3","","2","1","3","2","1","2","2","3","0","3","0","3","4","5","1","5","5","1","3","2","3","5","1","5","5","5","1","5","5","5","1","1","2","0","0","2","3","2","4","5","3","1","3","3","4","1","5","4","5","5","5","4","5","5","3","3","3","1","3","3","3","agree","447.79999999701977","","","","","","","","<div style=""font-size:60px;"">?</div>","65","50","1","0.8"
"html-keyboard-response","134","326277","0.0-12.0","bfvzapnfac2mtjr","1","60feda9a21964047d2a68b74","22","12/1998","In a relationship","English","Mandarin","Female","Asian","No","Undergraduate degree","No, currently not in school","N/A","N/A","N/A","9","9","7","1","0","0.5","stim/N000.jpg","76","65","0.483333334","3","1","3","","2","1","3","2","1","2","2","3","0","3","0","3","4","5","1","5","5","1","3","2","3","5","1","5","5","5","1","5","5","5","1","1","2","0","0","2","3","2","4","5","3","1","3","3","4","1","5","4","5","5","5","4","5","5","3","3","3","1","3","3","3","agree","3126.0999999940395","","","","","","","","<p>Block 2</p><p>Press SPACE to continue.</p>","32","","",""
"image-keyboard-response","135","327782","0.0-13.0-0.0","bfvzapnfac2mtjr","1","60feda9a21964047d2a68b74","22","12/1998","In a relationship","English","Mandarin","Female","Asian","No","Undergraduate degree","No, currently not in school","N/A","N/A","N/A","9","9","7","1","0","0.5","stim/N000.jpg","76","65","0.483333334","3","1","3","","2","1","3","2","1","2","2","3","0","3","0","3","4","5","1","5","5","1","3","2","3","5","1","5","5","5","1","5","5","5","1","1","2","0","0","2","3","2","4","5","3","1","3","3","4","1","5","4","5","5","5","4","5","5","3","3","3","1","3","3","3","agree","null","","","","","","","","stim/H160.jpg","null","","",""
"html-keyboard-response","136","328746","0.0-13.0-1.0","bfvzapnfac2mtjr","1","60feda9a21964047d2a68b74","22","12/1998","In a relationship","English","Mandarin","Female","Asian","No","Undergraduate degree","No, currently not in school","N/A","N/A","N/A","9","9","7","1","0","0.5","stim/N000.jpg","76","65","0.483333334","3","1","3","","2","1","3","2","1","2","2","3","0","3","0","3","4","5","1","5","5","1","3","2","3","5","1","5","5","5","1","5","5","5","1","1","2","0","0","2","3","2","4","5","3","1","3","3","4","1","5","4","5","5","5","4","5","5","3","3","3","1","3","3","3","agree","963","","","","","","","","<div style=""font-size:60px;"">?</div>","76","1","2","0.8"
"image-keyboard-response","137","329749","0.0-13.0-0.1","bfvzapnfac2mtjr","1","60feda9a21964047d2a68b74","22","12/1998","In a relationship","English","Mandarin","Female","Asian","No","Undergraduate degree","No, currently not in school","N/A","N/A","N/A","9","9","7","1","0","0.5","stim/N000.jpg","76","65","0.483333334","3","1","3","","2","1","3","2","1","2","2","3","0","3","0","3","4","5","1","5","5","1","3","2","3","5","1","5","5","5","1","5","5","5","1","1","2","0","0","2","3","2","4","5","3","1","3","3","4","1","5","4","5","5","5","4","5","5","3","3","3","1","3","3","3","agree","null","","","","","","","","stim/H130.jpg","null","","",""
"html-keyboard-response","138","330071","0.0-13.0-1.1","bfvzapnfac2mtjr","1","60feda9a21964047d2a68b74","22","12/1998","In a relationship","English","Mandarin","Female","Asian","No","Undergraduate degree","No, currently not in school","N/A","N/A","N/A","9","9","7","1","0","0.5","stim/N000.jpg","76","65","0.483333334","3","1","3","","2","1","3","2","1","2","2","3","0","3","0","3","4","5","1","5","5","1","3","2","3","5","1","5","5","5","1","5","5","5","1","1","2","0","0","2","3","2","4","5","3","1","3","3","4","1","5","4","5","5","5","4","5","5","3","3","3","1","3","3","3","agree","321.59999999403954","","","","","","","","<div style=""font-size:60px;"">?</div>","76","2","2","0.8"
"image-keyboard-response","139","331081","0.0-13.0-0.2","bfvzapnfac2mtjr","1","60feda9a21964047d2a68b74","22","12/1998","In a relationship","English","Mandarin","Female","Asian","No","Undergraduate degree","No, currently not in school","N/A","N/A","N/A","9","9","7","1","0","0.5","stim/N000.jpg","76","65","0.483333334","3","1","3","","2","1","3","2","1","2","2","3","0","3","0","3","4","5","1","5","5","1","3","2","3","5","1","5","5","5","1","5","5","5","1","1","2","0","0","2","3","2","4","5","3","1","3","3","4","1","5","4","5","5","5","4","5","5","3","3","3","1","3","3","3","agree","null","","","","","","","","stim/H130.jpg","null","","",""
"html-keyboard-response","140","331331","0.0-13.0-1.2","bfvzapnfac2mtjr","1","60feda9a21964047d2a68b74","22","12/1998","In a relationship","English","Mandarin","Female","Asian","No","Undergraduate degree","No, currently not in school","N/A","N/A","N/A","9","9","7","1","0","0.5","stim/N000.jpg","76","65","0.483333334","3","1","3","","2","1","3","2","1","2","2","3","0","3","0","3","4","5","1","5","5","1","3","2","3","5","1","5","5","5","1","5","5","5","1","1","2","0","0","2","3","2","4","5","3","1","3","3","4","1","5","4","5","5","5","4","5","5","3","3","3","1","3","3","3","agree","249.79999999701977","","","","","","","","<div style=""font-size:60px;"">?</div>","76","3","2","0.8"
"image-keyboard-response","141","332335","0.0-13.0-0.3","bfvzapnfac2mtjr","1","60feda9a21964047d2a68b74","22","12/1998","In a relationship","English","Mandarin","Female","Asian","No","Undergraduate degree","No, currently not in school","N/A","N/A","N/A","9","9","7","1","0","0.5","stim/N000.jpg","76","65","0.483333334","3","1","3","","2","1","3","2","1","2","2","3","0","3","0","3","4","5","1","5","5","1","3","2","3","5","1","5","5","5","1","5","5","5","1","1","2","0","0","2","3","2","4","5","3","1","3","3","4","1","5","4","5","5","5","4","5","5","3","3","3","1","3","3","3","agree","null","","","","","","","","stim/H270.jpg","null","","",""
"html-keyboard-response","142","332520","0.0-13.0-1.3","bfvzapnfac2mtjr","1","60feda9a21964047d2a68b74","22","12/1998","In a relationship","English","Mandarin","Female","Asian","No","Undergraduate degree","No, currently not in school","N/A","N/A","N/A","9","9","7","1","0","0.5","stim/N000.jpg","76","65","0.483333334","3","1","3","","2","1","3","2","1","2","2","3","0","3","0","3","4","5","1","5","5","1","3","2","3","5","1","5","5","5","1","5","5","5","1","1","2","0","0","2","3","2","4","5","3","1","3","3","4","1","5","4","5","5","5","4","5","5","3","3","3","1","3","3","3","agree","184.5","","","","","","","","<div style=""font-size:60px;"">?</div>","76","4","2","0.8"
"image-keyboard-response","143","333532","0.0-13.0-0.4","bfvzapnfac2mtjr","1","60feda9a21964047d2a68b74","22","12/1998","In a relationship","English","Mandarin","Female","Asian","No","Undergraduate degree","No, currently not in school","N/A","N/A","N/A","9","9","7","1","0","0.5","stim/N000.jpg","76","65","0.483333334","3","1","3","","2","1","3","2","1","2","2","3","0","3","0","3","4","5","1","5","5","1","3","2","3","5","1","5","5","5","1","5","5","5","1","1","2","0","0","2","3","2","4","5","3","1","3","3","4","1","5","4","5","5","5","4","5","5","3","3","3","1","3","3","3","agree","null","","","","","","","","stim/H170.jpg","null","","",""
"html-keyboard-response","144","333643","0.0-13.0-1.4","bfvzapnfac2mtjr","1","60feda9a21964047d2a68b74","22","12/1998","In a relationship","English","Mandarin","Female","Asian","No","Undergraduate degree","No, currently not in school","N/A","N/A","N/A","9","9","7","1","0","0.5","stim/N000.jpg","76","65","0.483333334","3","1","3","","2","1","3","2","1","2","2","3","0","3","0","3","4","5","1","5","5","1","3","2","3","5","1","5","5","5","1","5","5","5","1","1","2","0","0","2","3","2","4","5","3","1","3","3","4","1","5","4","5","5","5","4","5","5","3","3","3","1","3","3","3","agree","111","","","","","","","","<div style=""font-size:60px;"">?</div>","76","5","2","0.8"
"image-keyboard-response","145","334651","0.0-13.0-0.5","bfvzapnfac2mtjr","1","60feda9a21964047d2a68b74","22","12/1998","In a relationship","English","Mandarin","Female","Asian","No","Undergraduate degree","No, currently not in school","N/A","N/A","N/A","9","9","7","1","0","0.5","stim/N000.jpg","76","65","0.483333334","3","1","3","","2","1","3","2","1","2","2","3","0","3","0","3","4","5","1","5","5","1","3","2","3","5","1","5","5","5","1","5","5","5","1","1","2","0","0","2","3","2","4","5","3","1","3","3","4","1","5","4","5","5","5","4","5","5","3","3","3","1","3","3","3","agree","null","","","","","","","","stim/H080.jpg","null","","",""
