"trial_type","trial_index","time_elapsed","internal_node_id","subject","condition","ID","age","dob","marital","natlang","olang","gender","ethnicity","mental_check","educ_l","educ_c","mental","mentdrug","mentpos","sesparent","sesstudent","sesladder","educ_hs","educ_ce","s1self","chosenbody","s1selfjudge","s2selfjudge","s2self","sspc_01","sspc_02","pas_01","pas_02","pas_03","pas_04","pas_05","pas_06","pas_07","pas_08","pas_09","pas_10","pas_11","pas_12","pas_13","pas_14","contact_01","contact_02","contact_03","contact_04","contact_05","contact_06","contact_07","contact_08","contact_09","idnd_01","idnd_02","idnd_03","idnd_04","idnd_05","idnd_06","idnd_07","idnd_08","catch_01","adig_01","adig_02","adig_03","plcs_01","plcs_02","plcs_03","plcs_04","plcs_05","plcs_06","plcs_07","plcs_08","plcs_09","plcs_10","plcs_11","plcs_12","catch_02","wwwp_01","wwwp_02","wwwp_03","wwwp_04","wwwp_05","wwwp_06","wwwp_07","wwwp_08","wwwp_09","lsns_fam_1","lsns_fam_2","lsns_fam_3","lsns_fri_1","lsns_fri_2","lsns_fri_3","debrief","rt","url","success","view_history","responses","question_order","final_value","start_value","stimulus","key_press","trial","block","freq"
"pavlovia","0","7","0.0-0.0","vbof7925wnw8b3s","1","611dbeedf19e4698d963ff1f","20","02/2001","single","english ","Cantonese, Vietnamese","Female","Asian","No","High School","Yes, Undergraduate studies","n/a","n/a","n/a","6","1","2","0","3","0.49999997999999996","stim/N000.jpg","65","65","0.366666672","3","0","4","","4","2","3","1","0","4","4","4","0","1","0","0","5","5","2","5","6","1","4","0","0","5","0","5","5","5","0","5","5","5","4","4","3","0","0","0","3","3","0","5","2","2","4","4","4","1","6","6","6","6","4","4","6","6","0","4","2","2","4","3","3","agree","","","","","","","","","","","","",""
"external-html","1","96484","0.0-1.0","vbof7925wnw8b3s","1","611dbeedf19e4698d963ff1f","20","02/2001","single","english ","Cantonese, Vietnamese","Female","Asian","No","High School","Yes, Undergraduate studies","n/a","n/a","n/a","6","1","2","0","3","0.49999997999999996","stim/N000.jpg","65","65","0.366666672","3","0","4","","4","2","3","1","0","4","4","4","0","1","0","0","5","5","2","5","6","1","4","0","0","5","0","5","5","5","0","5","5","5","4","4","3","0","0","0","3","3","0","5","2","2","4","4","4","1","6","6","6","6","4","4","6","6","0","4","2","2","4","3","3","agree","96229.79999999702","sub/html/consent.html","","","","","","","","","","",""
"fullscreen","2","100740","0.0-2.0","vbof7925wnw8b3s","1","611dbeedf19e4698d963ff1f","20","02/2001","single","english ","Cantonese, Vietnamese","Female","Asian","No","High School","Yes, Undergraduate studies","n/a","n/a","n/a","6","1","2","0","3","0.49999997999999996","stim/N000.jpg","65","65","0.366666672","3","0","4","","4","2","3","1","0","4","4","4","0","1","0","0","5","5","2","5","6","1","4","0","0","5","0","5","5","5","0","5","5","5","4","4","3","0","0","0","3","3","0","5","2","2","4","4","4","1","6","6","6","6","4","4","6","6","0","4","2","2","4","3","3","agree","","","true","","","","","","","","","",""
"instructions","3","105612","0.0-3.0","vbof7925wnw8b3s","1","611dbeedf19e4698d963ff1f","20","02/2001","single","english ","Cantonese, Vietnamese","Female","Asian","No","High School","Yes, Undergraduate studies","n/a","n/a","n/a","6","1","2","0","3","0.49999997999999996","stim/N000.jpg","65","65","0.366666672","3","0","4","","4","2","3","1","0","4","4","4","0","1","0","0","5","5","2","5","6","1","4","0","0","5","0","5","5","5","0","5","5","5","4","4","3","0","0","0","3","3","0","5","2","2","4","4","4","1","6","6","6","6","4","4","6","6","0","4","2","2","4","3","3","agree","4869.5","","","[{""page_index"":0,""viewing_time"":2035.7999999970198},{""page_index"":1,""viewing_time"":2832.2000000029802}]","","","","","","","","",""
"survey-text","4","138896","0.0-4.0-0.0","vbof7925wnw8b3s","1","611dbeedf19e4698d963ff1f","20","02/2001","single","english ","Cantonese, Vietnamese","Female","Asian","No","High School","Yes, Undergraduate studies","n/a","n/a","n/a","6","1","2","0","3","0.49999997999999996","stim/N000.jpg","65","65","0.366666672","3","0","4","","4","2","3","1","0","4","4","4","0","1","0","0","5","5","2","5","6","1","4","0","0","5","0","5","5","5","0","5","5","5","4","4","3","0","0","0","3","3","0","5","2","2","4","4","4","1","6","6","6","6","4","4","6","6","0","4","2","2","4","3","3","agree","33246.70000000298","","","","{""ID"":""611dbeedf19e4698d963ff1f"",""age"":""20"",""dob"":""02/2001"",""marital"":""single"",""natlang"":""english "",""olang"":""Cantonese, Vietnamese""}","","","","","","","",""
"survey-multi-choice","5","158880","0.0-4.0-1.0","vbof7925wnw8b3s","1","611dbeedf19e4698d963ff1f","20","02/2001","single","english ","Cantonese, Vietnamese","Female","Asian","No","High School","Yes, Undergraduate studies","n/a","n/a","n/a","6","1","2","0","3","0.49999997999999996","stim/N000.jpg","65","65","0.366666672","3","0","4","","4","2","3","1","0","4","4","4","0","1","0","0","5","5","2","5","6","1","4","0","0","5","0","5","5","5","0","5","5","5","4","4","3","0","0","0","3","3","0","5","2","2","4","4","4","1","6","6","6","6","4","4","6","6","0","4","2","2","4","3","3","agree","19976.89999999106","","","","{""gender"":""Female"",""ethnicity"":""Asian"",""mental_check"":""No"",""educ_l"":""High School"",""educ_c"":""Yes, Undergraduate studies""}","[0,1,2,3,4]","","","","","","",""
"survey-text","6","168064","0.0-4.0-2.0","vbof7925wnw8b3s","1","611dbeedf19e4698d963ff1f","20","02/2001","single","english ","Cantonese, Vietnamese","Female","Asian","No","High School","Yes, Undergraduate studies","n/a","n/a","n/a","6","1","2","0","3","0.49999997999999996","stim/N000.jpg","65","65","0.366666672","3","0","4","","4","2","3","1","0","4","4","4","0","1","0","0","5","5","2","5","6","1","4","0","0","5","0","5","5","5","0","5","5","5","4","4","3","0","0","0","3","3","0","5","2","2","4","4","4","1","6","6","6","6","4","4","6","6","0","4","2","2","4","3","3","agree","9155","","","","{""mental"":""n/a"",""mentdrug"":""n/a"",""mentpos"":""n/a""}","","","","","","","",""
"survey-likert","7","237234","0.0-4.0-3.0","vbof7925wnw8b3s","1","611dbeedf19e4698d963ff1f","20","02/2001","single","english ","Cantonese, Vietnamese","Female","Asian","No","High School","Yes, Undergraduate studies","n/a","n/a","n/a","6","1","2","0","3","0.49999997999999996","stim/N000.jpg","65","65","0.366666672","3","0","4","","4","2","3","1","0","4","4","4","0","1","0","0","5","5","2","5","6","1","4","0","0","5","0","5","5","5","0","5","5","5","4","4","3","0","0","0","3","3","0","5","2","2","4","4","4","1","6","6","6","6","4","4","6","6","0","4","2","2","4","3","3","agree","69163.90000000596","","","","{""sesparent"":6,""sesstudent"":1,""sesladder"":2}","[0,1,2]","","","","","","",""
"survey-likert","8","254979","0.0-4.0-4.0","vbof7925wnw8b3s","1","611dbeedf19e4698d963ff1f","20","02/2001","single","english ","Cantonese, Vietnamese","Female","Asian","No","High School","Yes, Undergraduate studies","n/a","n/a","n/a","6","1","2","0","3","0.49999997999999996","stim/N000.jpg","65","65","0.366666672","3","0","4","","4","2","3","1","0","4","4","4","0","1","0","0","5","5","2","5","6","1","4","0","0","5","0","5","5","5","0","5","5","5","4","4","3","0","0","0","3","3","0","5","2","2","4","4","4","1","6","6","6","6","4","4","6","6","0","4","2","2","4","3","3","agree","17731.90000000596","","","","{""educ_hs"":1,""educ_ce"":3}","[0,1]","","","","","","",""
"reconstruction","9","281470","0.0-5.0","vbof7925wnw8b3s","1","611dbeedf19e4698d963ff1f","20","02/2001","single","english ","Cantonese, Vietnamese","Female","Asian","No","High School","Yes, Undergraduate studies","n/a","n/a","n/a","6","1","2","0","3","0.49999997999999996","stim/N000.jpg","65","65","0.366666672","3","0","4","","4","2","3","1","0","4","4","4","0","1","0","0","5","5","2","5","6","1","4","0","0","5","0","5","5","5","0","5","5","5","4","4","3","0","0","0","3","3","0","5","2","2","4","4","4","1","6","6","6","6","4","4","6","6","0","4","2","2","4","3","3","agree","26478.79999999702","","","","","","0.49999997999999996","0.5","","","","",""
"image-keyboard-response","10","288615","0.0-6.0","vbof7925wnw8b3s","1","611dbeedf19e4698d963ff1f","20","02/2001","single","english ","Cantonese, Vietnamese","Female","Asian","No","High School","Yes, Undergraduate studies","n/a","n/a","n/a","6","1","2","0","3","0.49999997999999996","stim/N000.jpg","65","65","0.366666672","3","0","4","","4","2","3","1","0","4","4","4","0","1","0","0","5","5","2","5","6","1","4","0","0","5","0","5","5","5","0","5","5","5","4","4","3","0","0","0","3","3","0","5","2","2","4","4","4","1","6","6","6","6","4","4","6","6","0","4","2","2","4","3","3","agree","7140.5999999940395","","","","","","","","stim/N000.jpg","65","","",""
"instructions","11","348654","0.0-7.0","vbof7925wnw8b3s","1","611dbeedf19e4698d963ff1f","20","02/2001","single","english ","Cantonese, Vietnamese","Female","Asian","No","High School","Yes, Undergraduate studies","n/a","n/a","n/a","6","1","2","0","3","0.49999997999999996","stim/N000.jpg","65","65","0.366666672","3","0","4","","4","2","3","1","0","4","4","4","0","1","0","0","5","5","2","5","6","1","4","0","0","5","0","5","5","5","0","5","5","5","4","4","3","0","0","0","3","3","0","5","2","2","4","4","4","1","6","6","6","6","4","4","6","6","0","4","2","2","4","3","3","agree","60036.5","","","[{""page_index"":0,""viewing_time"":1898.800000011921},{""page_index"":1,""viewing_time"":4633.699999988079},{""page_index"":2,""viewing_time"":4714.4000000059605},{""page_index"":1,""viewing_time"":1054.5999999940395},{""page_index"":2,""viewing_time"":437.1000000089407},{""page_index"":3,""viewing_time"":29453.39999999106},{""page_index"":4,""viewing_time"":2335.800000011921},{""page_index"":5,""viewing_time"":6763.199999988079},{""page_index"":4,""viewing_time"":908.9000000059605},{""page_index"":3,""viewing_time"":1464.0999999940395},{""page_index"":2,""viewing_time"":1511.9000000059605},{""page_index"":3,""viewing_time"":476.20000000298023},{""page_index"":4,""viewing_time"":783.2000000029802},{""page_index"":5,""viewing_time"":921.0999999940395},{""page_index"":6,""viewing_time"":2679.2000000029802}]","","","","","","","","",""
"image-keyboard-response","12","349159","0.0-8.0-0.0","vbof7925wnw8b3s","1","611dbeedf19e4698d963ff1f","20","02/2001","single","english ","Cantonese, Vietnamese","Female","Asian","No","High School","Yes, Undergraduate studies","n/a","n/a","n/a","6","1","2","0","3","0.49999997999999996","stim/N000.jpg","65","65","0.366666672","3","0","4","","4","2","3","1","0","4","4","4","0","1","0","0","5","5","2","5","6","1","4","0","0","5","0","5","5","5","0","5","5","5","4","4","3","0","0","0","3","3","0","5","2","2","4","4","4","1","6","6","6","6","4","4","6","6","0","4","2","2","4","3","3","agree","null","","","","","","","","stim/H200.jpg","null","","",""
"html-keyboard-response","13","351312","0.0-8.0-1.0","vbof7925wnw8b3s","1","611dbeedf19e4698d963ff1f","20","02/2001","single","english ","Cantonese, Vietnamese","Female","Asian","No","High School","Yes, Undergraduate studies","n/a","n/a","n/a","6","1","2","0","3","0.49999997999999996","stim/N000.jpg","65","65","0.366666672","3","0","4","","4","2","3","1","0","4","4","4","0","1","0","0","5","5","2","5","6","1","4","0","0","5","0","5","5","5","0","5","5","5","4","4","3","0","0","0","3","3","0","5","2","2","4","4","4","1","6","6","6","6","4","4","6","6","0","4","2","2","4","3","3","agree","2151","","","","","","","","<div style=""font-size:60px;"">?</div>","65","1","Practice","0.5"
"image-keyboard-response","14","352332","0.0-8.0-0.1","vbof7925wnw8b3s","1","611dbeedf19e4698d963ff1f","20","02/2001","single","english ","Cantonese, Vietnamese","Female","Asian","No","High School","Yes, Undergraduate studies","n/a","n/a","n/a","6","1","2","0","3","0.49999997999999996","stim/N000.jpg","65","65","0.366666672","3","0","4","","4","2","3","1","0","4","4","4","0","1","0","0","5","5","2","5","6","1","4","0","0","5","0","5","5","5","0","5","5","5","4","4","3","0","0","0","3","3","0","5","2","2","4","4","4","1","6","6","6","6","4","4","6","6","0","4","2","2","4","3","3","agree","null","","","","","","","","stim/T100.jpg","null","","",""
"html-keyboard-response","15","352902","0.0-8.0-1.1","vbof7925wnw8b3s","1","611dbeedf19e4698d963ff1f","20","02/2001","single","english ","Cantonese, Vietnamese","Female","Asian","No","High School","Yes, Undergraduate studies","n/a","n/a","n/a","6","1","2","0","3","0.49999997999999996","stim/N000.jpg","65","65","0.366666672","3","0","4","","4","2","3","1","0","4","4","4","0","1","0","0","5","5","2","5","6","1","4","0","0","5","0","5","5","5","0","5","5","5","4","4","3","0","0","0","3","3","0","5","2","2","4","4","4","1","6","6","6","6","4","4","6","6","0","4","2","2","4","3","3","agree","568.4000000059605","","","","","","","","<div style=""font-size:60px;"">?</div>","76","2","Practice","0.5"
"image-keyboard-response","16","353916","0.0-8.0-0.2","vbof7925wnw8b3s","1","611dbeedf19e4698d963ff1f","20","02/2001","single","english ","Cantonese, Vietnamese","Female","Asian","No","High School","Yes, Undergraduate studies","n/a","n/a","n/a","6","1","2","0","3","0.49999997999999996","stim/N000.jpg","65","65","0.366666672","3","0","4","","4","2","3","1","0","4","4","4","0","1","0","0","5","5","2","5","6","1","4","0","0","5","0","5","5","5","0","5","5","5","4","4","3","0","0","0","3","3","0","5","2","2","4","4","4","1","6","6","6","6","4","4","6","6","0","4","2","2","4","3","3","agree","null","","","","","","","","stim/T050.jpg","null","","",""
"html-keyboard-response","17","354529","0.0-8.0-1.2","vbof7925wnw8b3s","1","611dbeedf19e4698d963ff1f","20","02/2001","single","english ","Cantonese, Vietnamese","Female","Asian","No","High School","Yes, Undergraduate studies","n/a","n/a","n/a","6","1","2","0","3","0.49999997999999996","stim/N000.jpg","65","65","0.366666672","3","0","4","","4","2","3","1","0","4","4","4","0","1","0","0","5","5","2","5","6","1","4","0","0","5","0","5","5","5","0","5","5","5","4","4","3","0","0","0","3","3","0","5","2","2","4","4","4","1","6","6","6","6","4","4","6","6","0","4","2","2","4","3","3","agree","611.4000000059605","","","","","","","","<div style=""font-size:60px;"">?</div>","76","3","Practice","0.5"
"image-keyboard-response","18","355543","0.0-8.0-0.3","vbof7925wnw8b3s","1","611dbeedf19e4698d963ff1f","20","02/2001","single","english ","Cantonese, Vietnamese","Female","Asian","No","High School","Yes, Undergraduate studies","n/a","n/a","n/a","6","1","2","0","3","0.49999997999999996","stim/N000.jpg","65","65","0.366666672","3","0","4","","4","2","3","1","0","4","4","4","0","1","0","0","5","5","2","5","6","1","4","0","0","5","0","5","5","5","0","5","5","5","4","4","3","0","0","0","3","3","0","5","2","2","4","4","4","1","6","6","6","6","4","4","6","6","0","4","2","2","4","3","3","agree","null","","","","","","","","stim/T120.jpg","null","","",""
"html-keyboard-response","19","356092","0.0-8.0-1.3","vbof7925wnw8b3s","1","611dbeedf19e4698d963ff1f","20","02/2001","single","english ","Cantonese, Vietnamese","Female","Asian","No","High School","Yes, Undergraduate studies","n/a","n/a","n/a","6","1","2","0","3","0.49999997999999996","stim/N000.jpg","65","65","0.366666672","3","0","4","","4","2","3","1","0","4","4","4","0","1","0","0","5","5","2","5","6","1","4","0","0","5","0","5","5","5","0","5","5","5","4","4","3","0","0","0","3","3","0","5","2","2","4","4","4","1","6","6","6","6","4","4","6","6","0","4","2","2","4","3","3","agree","547.7999999970198","","","","","","","","<div style=""font-size:60px;"">?</div>","76","4","Practice","0.5"
"image-keyboard-response","20","357103","0.0-8.0-0.4","vbof7925wnw8b3s","1","611dbeedf19e4698d963ff1f","20","02/2001","single","english ","Cantonese, Vietnamese","Female","Asian","No","High School","Yes, Undergraduate studies","n/a","n/a","n/a","6","1","2","0","3","0.49999997999999996","stim/N000.jpg","65","65","0.366666672","3","0","4","","4","2","3","1","0","4","4","4","0","1","0","0","5","5","2","5","6","1","4","0","0","5","0","5","5","5","0","5","5","5","4","4","3","0","0","0","3","3","0","5","2","2","4","4","4","1","6","6","6","6","4","4","6","6","0","4","2","2","4","3","3","agree","null","","","","","","","","stim/T110.jpg","null","","",""
"html-keyboard-response","21","357466","0.0-8.0-1.4","vbof7925wnw8b3s","1","611dbeedf19e4698d963ff1f","20","02/2001","single","english ","Cantonese, Vietnamese","Female","Asian","No","High School","Yes, Undergraduate studies","n/a","n/a","n/a","6","1","2","0","3","0.49999997999999996","stim/N000.jpg","65","65","0.366666672","3","0","4","","4","2","3","1","0","4","4","4","0","1","0","0","5","5","2","5","6","1","4","0","0","5","0","5","5","5","0","5","5","5","4","4","3","0","0","0","3","3","0","5","2","2","4","4","4","1","6","6","6","6","4","4","6","6","0","4","2","2","4","3","3","agree","362.40000000596046","","","","","","","","<div style=""font-size:60px;"">?</div>","76","5","Practice","0.5"
"image-keyboard-response","22","358474","0.0-8.0-0.5","vbof7925wnw8b3s","1","611dbeedf19e4698d963ff1f","20","02/2001","single","english ","Cantonese, Vietnamese","Female","Asian","No","High School","Yes, Undergraduate studies","n/a","n/a","n/a","6","1","2","0","3","0.49999997999999996","stim/N000.jpg","65","65","0.366666672","3","0","4","","4","2","3","1","0","4","4","4","0","1","0","0","5","5","2","5","6","1","4","0","0","5","0","5","5","5","0","5","5","5","4","4","3","0","0","0","3","3","0","5","2","2","4","4","4","1","6","6","6","6","4","4","6","6","0","4","2","2","4","3","3","agree","null","","","","","","","","stim/H130.jpg","null","","",""
"html-keyboard-response","23","358890","0.0-8.0-1.5","vbof7925wnw8b3s","1","611dbeedf19e4698d963ff1f","20","02/2001","single","english ","Cantonese, Vietnamese","Female","Asian","No","High School","Yes, Undergraduate studies","n/a","n/a","n/a","6","1","2","0","3","0.49999997999999996","stim/N000.jpg","65","65","0.366666672","3","0","4","","4","2","3","1","0","4","4","4","0","1","0","0","5","5","2","5","6","1","4","0","0","5","0","5","5","5","0","5","5","5","4","4","3","0","0","0","3","3","0","5","2","2","4","4","4","1","6","6","6","6","4","4","6","6","0","4","2","2","4","3","3","agree","414.59999999403954","","","","","","","","<div style=""font-size:60px;"">?</div>","65","6","Practice","0.5"
"image-keyboard-response","24","359919","0.0-8.0-0.6","vbof7925wnw8b3s","1","611dbeedf19e4698d963ff1f","20","02/2001","single","english ","Cantonese, Vietnamese","Female","Asian","No","High School","Yes, Undergraduate studies","n/a","n/a","n/a","6","1","2","0","3","0.49999997999999996","stim/N000.jpg","65","65","0.366666672","3","0","4","","4","2","3","1","0","4","4","4","0","1","0","0","5","5","2","5","6","1","4","0","0","5","0","5","5","5","0","5","5","5","4","4","3","0","0","0","3","3","0","5","2","2","4","4","4","1","6","6","6","6","4","4","6","6","0","4","2","2","4","3","3","agree","null","","","","","","","","stim/T110.jpg","null","","",""
"html-keyboard-response","25","360010","0.0-8.0-1.6","vbof7925wnw8b3s","1","611dbeedf19e4698d963ff1f","20","02/2001","single","english ","Cantonese, Vietnamese","Female","Asian","No","High School","Yes, Undergraduate studies","n/a","n/a","n/a","6","1","2","0","3","0.49999997999999996","stim/N000.jpg","65","65","0.366666672","3","0","4","","4","2","3","1","0","4","4","4","0","1","0","0","5","5","2","5","6","1","4","0","0","5","0","5","5","5","0","5","5","5","4","4","3","0","0","0","3","3","0","5","2","2","4","4","4","1","6","6","6","6","4","4","6","6","0","4","2","2","4","3","3","agree","89.5","","","","","","","","<div style=""font-size:60px;"">?</div>","76","7","Practice","0.5"
"image-keyboard-response","26","361030","0.0-8.0-0.7","vbof7925wnw8b3s","1","611dbeedf19e4698d963ff1f","20","02/2001","single","english ","Cantonese, Vietnamese","Female","Asian","No","High School","Yes, Undergraduate studies","n/a","n/a","n/a","6","1","2","0","3","0.49999997999999996","stim/N000.jpg","65","65","0.366666672","3","0","4","","4","2","3","1","0","4","4","4","0","1","0","0","5","5","2","5","6","1","4","0","0","5","0","5","5","5","0","5","5","5","4","4","3","0","0","0","3","3","0","5","2","2","4","4","4","1","6","6","6","6","4","4","6","6","0","4","2","2","4","3","3","agree","null","","","","","","","","stim/H270.jpg","null","","",""
"html-keyboard-response","27","361046","0.0-8.0-1.7","vbof7925wnw8b3s","1","611dbeedf19e4698d963ff1f","20","02/2001","single","english ","Cantonese, Vietnamese","Female","Asian","No","High School","Yes, Undergraduate studies","n/a","n/a","n/a","6","1","2","0","3","0.49999997999999996","stim/N000.jpg","65","65","0.366666672","3","0","4","","4","2","3","1","0","4","4","4","0","1","0","0","5","5","2","5","6","1","4","0","0","5","0","5","5","5","0","5","5","5","4","4","3","0","0","0","3","3","0","5","2","2","4","4","4","1","6","6","6","6","4","4","6","6","0","4","2","2","4","3","3","agree","14.5","","","","","","","","<div style=""font-size:60px;"">?</div>","65","8","Practice","0.5"
"image-keyboard-response","28","362068","0.0-8.0-0.8","vbof7925wnw8b3s","1","611dbeedf19e4698d963ff1f","20","02/2001","single","english ","Cantonese, Vietnamese","Female","Asian","No","High School","Yes, Undergraduate studies","n/a","n/a","n/a","6","1","2","0","3","0.49999997999999996","stim/N000.jpg","65","65","0.366666672","3","0","4","","4","2","3","1","0","4","4","4","0","1","0","0","5","5","2","5","6","1","4","0","0","5","0","5","5","5","0","5","5","5","4","4","3","0","0","0","3","3","0","5","2","2","4","4","4","1","6","6","6","6","4","4","6","6","0","4","2","2","4","3","3","agree","null","","","","","","","","stim/H180.jpg","null","","",""
"html-keyboard-response","29","362109","0.0-8.0-1.8","vbof7925wnw8b3s","1","611dbeedf19e4698d963ff1f","20","02/2001","single","english ","Cantonese, Vietnamese","Female","Asian","No","High School","Yes, Undergraduate studies","n/a","n/a","n/a","6","1","2","0","3","0.49999997999999996","stim/N000.jpg","65","65","0.366666672","3","0","4","","4","2","3","1","0","4","4","4","0","1","0","0","5","5","2","5","6","1","4","0","0","5","0","5","5","5","0","5","5","5","4","4","3","0","0","0","3","3","0","5","2","2","4","4","4","1","6","6","6","6","4","4","6","6","0","4","2","2","4","3","3","agree","39.70000000298023","","","","","","","","<div style=""font-size:60px;"">?</div>","65","9","Practice","0.5"
"image-keyboard-response","30","363124","0.0-8.0-0.9","vbof7925wnw8b3s","1","611dbeedf19e4698d963ff1f","20","02/2001","single","english ","Cantonese, Vietnamese","Female","Asian","No","High School","Yes, Undergraduate studies","n/a","n/a","n/a","6","1","2","0","3","0.49999997999999996","stim/N000.jpg","65","65","0.366666672","3","0","4","","4","2","3","1","0","4","4","4","0","1","0","0","5","5","2","5","6","1","4","0","0","5","0","5","5","5","0","5","5","5","4","4","3","0","0","0","3","3","0","5","2","2","4","4","4","1","6","6","6","6","4","4","6","6","0","4","2","2","4","3","3","agree","null","","","","","","","","stim/H030.jpg","null","","",""
"html-keyboard-response","31","363955","0.0-8.0-1.9","vbof7925wnw8b3s","1","611dbeedf19e4698d963ff1f","20","02/2001","single","english ","Cantonese, Vietnamese","Female","Asian","No","High School","Yes, Undergraduate studies","n/a","n/a","n/a","6","1","2","0","3","0.49999997999999996","stim/N000.jpg","65","65","0.366666672","3","0","4","","4","2","3","1","0","4","4","4","0","1","0","0","5","5","2","5","6","1","4","0","0","5","0","5","5","5","0","5","5","5","4","4","3","0","0","0","3","3","0","5","2","2","4","4","4","1","6","6","6","6","4","4","6","6","0","4","2","2","4","3","3","agree","829.5","","","","","","","","<div style=""font-size:60px;"">?</div>","76","10","Practice","0.5"
"html-keyboard-response","32","369869","0.0-9.0","vbof7925wnw8b3s","1","611dbeedf19e4698d963ff1f","20","02/2001","single","english ","Cantonese, Vietnamese","Female","Asian","No","High School","Yes, Undergraduate studies","n/a","n/a","n/a","6","1","2","0","3","0.49999997999999996","stim/N000.jpg","65","65","0.366666672","3","0","4","","4","2","3","1","0","4","4","4","0","1","0","0","5","5","2","5","6","1","4","0","0","5","0","5","5","5","0","5","5","5","4","4","3","0","0","0","3","3","0","5","2","2","4","4","4","1","6","6","6","6","4","4","6","6","0","4","2","2","4","3","3","agree","5406.5","","","","","","","","<p>You have now completed the practice series.</p><p>If you have any questions, please reload this page and read the instructions again.</p><p>Otherwise, you're ready to begin the study!</p><p><strong>REMEMBER</strong>: Press <b>L </b>when you think the face is of Western origin, and <b>A </b>if not. </p><p>Press SPACE when you're ready to start!</p>","32","","",""
"html-keyboard-response","33","372022","0.0-10.0","vbof7925wnw8b3s","1","611dbeedf19e4698d963ff1f","20","02/2001","single","english ","Cantonese, Vietnamese","Female","Asian","No","High School","Yes, Undergraduate studies","n/a","n/a","n/a","6","1","2","0","3","0.49999997999999996","stim/N000.jpg","65","65","0.366666672","3","0","4","","4","2","3","1","0","4","4","4","0","1","0","0","5","5","2","5","6","1","4","0","0","5","0","5","5","5","0","5","5","5","4","4","3","0","0","0","3","3","0","5","2","2","4","4","4","1","6","6","6","6","4","4","6","6","0","4","2","2","4","3","3","agree","1651.0999999940395","","","","","","","","<p>Block 1</p><p>Press SPACE to continue.</p>","32","","",""
"image-keyboard-response","34","373536","0.0-11.0-0.0","vbof7925wnw8b3s","1","611dbeedf19e4698d963ff1f","20","02/2001","single","english ","Cantonese, Vietnamese","Female","Asian","No","High School","Yes, Undergraduate studies","n/a","n/a","n/a","6","1","2","0","3","0.49999997999999996","stim/N000.jpg","65","65","0.366666672","3","0","4","","4","2","3","1","0","4","4","4","0","1","0","0","5","5","2","5","6","1","4","0","0","5","0","5","5","5","0","5","5","5","4","4","3","0","0","0","3","3","0","5","2","2","4","4","4","1","6","6","6","6","4","4","6","6","0","4","2","2","4","3","3","agree","null","","","","","","","","stim/T250.jpg","null","","",""
"html-keyboard-response","35","374136","0.0-11.0-1.0","vbof7925wnw8b3s","1","611dbeedf19e4698d963ff1f","20","02/2001","single","english ","Cantonese, Vietnamese","Female","Asian","No","High School","Yes, Undergraduate studies","n/a","n/a","n/a","6","1","2","0","3","0.49999997999999996","stim/N000.jpg","65","65","0.366666672","3","0","4","","4","2","3","1","0","4","4","4","0","1","0","0","5","5","2","5","6","1","4","0","0","5","0","5","5","5","0","5","5","5","4","4","3","0","0","0","3","3","0","5","2","2","4","4","4","1","6","6","6","6","4","4","6","6","0","4","2","2","4","3","3","agree","598.2000000029802","","","","","","","","<div style=""font-size:60px;"">?</div>","76","1","1","0.8"
"image-keyboard-response","36","375148","0.0-11.0-0.1","vbof7925wnw8b3s","1","611dbeedf19e4698d963ff1f","20","02/2001","single","english ","Cantonese, Vietnamese","Female","Asian","No","High School","Yes, Undergraduate studies","n/a","n/a","n/a","6","1","2","0","3","0.49999997999999996","stim/N000.jpg","65","65","0.366666672","3","0","4","","4","2","3","1","0","4","4","4","0","1","0","0","5","5","2","5","6","1","4","0","0","5","0","5","5","5","0","5","5","5","4","4","3","0","0","0","3","3","0","5","2","2","4","4","4","1","6","6","6","6","4","4","6","6","0","4","2","2","4","3","3","agree","null","","","","","","","","stim/H210.jpg","null","","",""
"html-keyboard-response","37","375652","0.0-11.0-1.1","vbof7925wnw8b3s","1","611dbeedf19e4698d963ff1f","20","02/2001","single","english ","Cantonese, Vietnamese","Female","Asian","No","High School","Yes, Undergraduate studies","n/a","n/a","n/a","6","1","2","0","3","0.49999997999999996","stim/N000.jpg","65","65","0.366666672","3","0","4","","4","2","3","1","0","4","4","4","0","1","0","0","5","5","2","5","6","1","4","0","0","5","0","5","5","5","0","5","5","5","4","4","3","0","0","0","3","3","0","5","2","2","4","4","4","1","6","6","6","6","4","4","6","6","0","4","2","2","4","3","3","agree","501.79999999701977","","","","","","","","<div style=""font-size:60px;"">?</div>","65","2","1","0.8"
"image-keyboard-response","38","376668","0.0-11.0-0.2","vbof7925wnw8b3s","1","611dbeedf19e4698d963ff1f","20","02/2001","single","english ","Cantonese, Vietnamese","Female","Asian","No","High School","Yes, Undergraduate studies","n/a","n/a","n/a","6","1","2","0","3","0.49999997999999996","stim/N000.jpg","65","65","0.366666672","3","0","4","","4","2","3","1","0","4","4","4","0","1","0","0","5","5","2","5","6","1","4","0","0","5","0","5","5","5","0","5","5","5","4","4","3","0","0","0","3","3","0","5","2","2","4","4","4","1","6","6","6","6","4","4","6","6","0","4","2","2","4","3","3","agree","null","","","","","","","","stim/H150.jpg","null","","",""
"html-keyboard-response","39","377092","0.0-11.0-1.2","vbof7925wnw8b3s","1","611dbeedf19e4698d963ff1f","20","02/2001","single","english ","Cantonese, Vietnamese","Female","Asian","No","High School","Yes, Undergraduate studies","n/a","n/a","n/a","6","1","2","0","3","0.49999997999999996","stim/N000.jpg","65","65","0.366666672","3","0","4","","4","2","3","1","0","4","4","4","0","1","0","0","5","5","2","5","6","1","4","0","0","5","0","5","5","5","0","5","5","5","4","4","3","0","0","0","3","3","0","5","2","2","4","4","4","1","6","6","6","6","4","4","6","6","0","4","2","2","4","3","3","agree","422.20000000298023","","","","","","","","<div style=""font-size:60px;"">?</div>","65","3","1","0.8"
"image-keyboard-response","40","378107","0.0-11.0-0.3","vbof7925wnw8b3s","1","611dbeedf19e4698d963ff1f","20","02/2001","single","english ","Cantonese, Vietnamese","Female","Asian","No","High School","Yes, Undergraduate studies","n/a","n/a","n/a","6","1","2","0","3","0.49999997999999996","stim/N000.jpg","65","65","0.366666672","3","0","4","","4","2","3","1","0","4","4","4","0","1","0","0","5","5","2","5","6","1","4","0","0","5","0","5","5","5","0","5","5","5","4","4","3","0","0","0","3","3","0","5","2","2","4","4","4","1","6","6","6","6","4","4","6","6","0","4","2","2","4","3","3","agree","null","","","","","","","","stim/H160.jpg","null","","",""
"html-keyboard-response","41","378498","0.0-11.0-1.3","vbof7925wnw8b3s","1","611dbeedf19e4698d963ff1f","20","02/2001","single","english ","Cantonese, Vietnamese","Female","Asian","No","High School","Yes, Undergraduate studies","n/a","n/a","n/a","6","1","2","0","3","0.49999997999999996","stim/N000.jpg","65","65","0.366666672","3","0","4","","4","2","3","1","0","4","4","4","0","1","0","0","5","5","2","5","6","1","4","0","0","5","0","5","5","5","0","5","5","5","4","4","3","0","0","0","3","3","0","5","2","2","4","4","4","1","6","6","6","6","4","4","6","6","0","4","2","2","4","3","3","agree","389.3999999910593","","","","","","","","<div style=""font-size:60px;"">?</div>","65","4","1","0.8"
"image-keyboard-response","42","379510","0.0-11.0-0.4","vbof7925wnw8b3s","1","611dbeedf19e4698d963ff1f","20","02/2001","single","english ","Cantonese, Vietnamese","Female","Asian","No","High School","Yes, Undergraduate studies","n/a","n/a","n/a","6","1","2","0","3","0.49999997999999996","stim/N000.jpg","65","65","0.366666672","3","0","4","","4","2","3","1","0","4","4","4","0","1","0","0","5","5","2","5","6","1","4","0","0","5","0","5","5","5","0","5","5","5","4","4","3","0","0","0","3","3","0","5","2","2","4","4","4","1","6","6","6","6","4","4","6","6","0","4","2","2","4","3","3","agree","null","","","","","","","","stim/H020.jpg","null","","",""
"html-keyboard-response","43","380225","0.0-11.0-1.4","vbof7925wnw8b3s","1","611dbeedf19e4698d963ff1f","20","02/2001","single","english ","Cantonese, Vietnamese","Female","Asian","No","High School","Yes, Undergraduate studies","n/a","n/a","n/a","6","1","2","0","3","0.49999997999999996","stim/N000.jpg","65","65","0.366666672","3","0","4","","4","2","3","1","0","4","4","4","0","1","0","0","5","5","2","5","6","1","4","0","0","5","0","5","5","5","0","5","5","5","4","4","3","0","0","0","3","3","0","5","2","2","4","4","4","1","6","6","6","6","4","4","6","6","0","4","2","2","4","3","3","agree","714.2999999970198","","","","","","","","<div style=""font-size:60px;"">?</div>","76","5","1","0.8"
"image-keyboard-response","44","381241","0.0-11.0-0.5","vbof7925wnw8b3s","1","611dbeedf19e4698d963ff1f","20","02/2001","single","english ","Cantonese, Vietnamese","Female","Asian","No","High School","Yes, Undergraduate studies","n/a","n/a","n/a","6","1","2","0","3","0.49999997999999996","stim/N000.jpg","65","65","0.366666672","3","0","4","","4","2","3","1","0","4","4","4","0","1","0","0","5","5","2","5","6","1","4","0","0","5","0","5","5","5","0","5","5","5","4","4","3","0","0","0","3","3","0","5","2","2","4","4","4","1","6","6","6","6","4","4","6","6","0","4","2","2","4","3","3","agree","null","","","","","","","","stim/H160.jpg","null","","",""
"html-keyboard-response","45","381659","0.0-11.0-1.5","vbof7925wnw8b3s","1","611dbeedf19e4698d963ff1f","20","02/2001","single","english ","Cantonese, Vietnamese","Female","Asian","No","High School","Yes, Undergraduate studies","n/a","n/a","n/a","6","1","2","0","3","0.49999997999999996","stim/N000.jpg","65","65","0.366666672","3","0","4","","4","2","3","1","0","4","4","4","0","1","0","0","5","5","2","5","6","1","4","0","0","5","0","5","5","5","0","5","5","5","4","4","3","0","0","0","3","3","0","5","2","2","4","4","4","1","6","6","6","6","4","4","6","6","0","4","2","2","4","3","3","agree","416.5","","","","","","","","<div style=""font-size:60px;"">?</div>","65","6","1","0.8"
"image-keyboard-response","46","382676","0.0-11.0-0.6","vbof7925wnw8b3s","1","611dbeedf19e4698d963ff1f","20","02/2001","single","english ","Cantonese, Vietnamese","Female","Asian","No","High School","Yes, Undergraduate studies","n/a","n/a","n/a","6","1","2","0","3","0.49999997999999996","stim/N000.jpg","65","65","0.366666672","3","0","4","","4","2","3","1","0","4","4","4","0","1","0","0","5","5","2","5","6","1","4","0","0","5","0","5","5","5","0","5","5","5","4","4","3","0","0","0","3","3","0","5","2","2","4","4","4","1","6","6","6","6","4","4","6","6","0","4","2","2","4","3","3","agree","null","","","","","","","","stim/H150.jpg","null","","",""
"html-keyboard-response","47","383001","0.0-11.0-1.6","vbof7925wnw8b3s","1","611dbeedf19e4698d963ff1f","20","02/2001","single","english ","Cantonese, Vietnamese","Female","Asian","No","High School","Yes, Undergraduate studies","n/a","n/a","n/a","6","1","2","0","3","0.49999997999999996","stim/N000.jpg","65","65","0.366666672","3","0","4","","4","2","3","1","0","4","4","4","0","1","0","0","5","5","2","5","6","1","4","0","0","5","0","5","5","5","0","5","5","5","4","4","3","0","0","0","3","3","0","5","2","2","4","4","4","1","6","6","6","6","4","4","6","6","0","4","2","2","4","3","3","agree","323.90000000596046","","","","","","","","<div style=""font-size:60px;"">?</div>","65","7","1","0.8"
"image-keyboard-response","48","384011","0.0-11.0-0.7","vbof7925wnw8b3s","1","611dbeedf19e4698d963ff1f","20","02/2001","single","english ","Cantonese, Vietnamese","Female","Asian","No","High School","Yes, Undergraduate studies","n/a","n/a","n/a","6","1","2","0","3","0.49999997999999996","stim/N000.jpg","65","65","0.366666672","3","0","4","","4","2","3","1","0","4","4","4","0","1","0","0","5","5","2","5","6","1","4","0","0","5","0","5","5","5","0","5","5","5","4","4","3","0","0","0","3","3","0","5","2","2","4","4","4","1","6","6","6","6","4","4","6","6","0","4","2","2","4","3","3","agree","null","","","","","","","","stim/H050.jpg","null","","",""
"html-keyboard-response","49","384352","0.0-11.0-1.7","vbof7925wnw8b3s","1","611dbeedf19e4698d963ff1f","20","02/2001","single","english ","Cantonese, Vietnamese","Female","Asian","No","High School","Yes, Undergraduate studies","n/a","n/a","n/a","6","1","2","0","3","0.49999997999999996","stim/N000.jpg","65","65","0.366666672","3","0","4","","4","2","3","1","0","4","4","4","0","1","0","0","5","5","2","5","6","1","4","0","0","5","0","5","5","5","0","5","5","5","4","4","3","0","0","0","3","3","0","5","2","2","4","4","4","1","6","6","6","6","4","4","6","6","0","4","2","2","4","3","3","agree","339.8999999910593","","","","","","","","<div style=""font-size:60px;"">?</div>","65","8","1","0.8"
"image-keyboard-response","50","385364","0.0-11.0-0.8","vbof7925wnw8b3s","1","611dbeedf19e4698d963ff1f","20","02/2001","single","english ","Cantonese, Vietnamese","Female","Asian","No","High School","Yes, Undergraduate studies","n/a","n/a","n/a","6","1","2","0","3","0.49999997999999996","stim/N000.jpg","65","65","0.366666672","3","0","4","","4","2","3","1","0","4","4","4","0","1","0","0","5","5","2","5","6","1","4","0","0","5","0","5","5","5","0","5","5","5","4","4","3","0","0","0","3","3","0","5","2","2","4","4","4","1","6","6","6","6","4","4","6","6","0","4","2","2","4","3","3","agree","null","","","","","","","","stim/T060.jpg","null","","",""
"html-keyboard-response","51","385433","0.0-11.0-1.8","vbof7925wnw8b3s","1","611dbeedf19e4698d963ff1f","20","02/2001","single","english ","Cantonese, Vietnamese","Female","Asian","No","High School","Yes, Undergraduate studies","n/a","n/a","n/a","6","1","2","0","3","0.49999997999999996","stim/N000.jpg","65","65","0.366666672","3","0","4","","4","2","3","1","0","4","4","4","0","1","0","0","5","5","2","5","6","1","4","0","0","5","0","5","5","5","0","5","5","5","4","4","3","0","0","0","3","3","0","5","2","2","4","4","4","1","6","6","6","6","4","4","6","6","0","4","2","2","4","3","3","agree","68.09999999403954","","","","","","","","<div style=""font-size:60px;"">?</div>","76","9","1","0.8"
"image-keyboard-response","52","386447","0.0-11.0-0.9","vbof7925wnw8b3s","1","611dbeedf19e4698d963ff1f","20","02/2001","single","english ","Cantonese, Vietnamese","Female","Asian","No","High School","Yes, Undergraduate studies","n/a","n/a","n/a","6","1","2","0","3","0.49999997999999996","stim/N000.jpg","65","65","0.366666672","3","0","4","","4","2","3","1","0","4","4","4","0","1","0","0","5","5","2","5","6","1","4","0","0","5","0","5","5","5","0","5","5","5","4","4","3","0","0","0","3","3","0","5","2","2","4","4","4","1","6","6","6","6","4","4","6","6","0","4","2","2","4","3","3","agree","null","","","","","","","","stim/T280.jpg","null","","",""
"html-keyboard-response","53","386523","0.0-11.0-1.9","vbof7925wnw8b3s","1","611dbeedf19e4698d963ff1f","20","02/2001","single","english ","Cantonese, Vietnamese","Female","Asian","No","High School","Yes, Undergraduate studies","n/a","n/a","n/a","6","1","2","0","3","0.49999997999999996","stim/N000.jpg","65","65","0.366666672","3","0","4","","4","2","3","1","0","4","4","4","0","1","0","0","5","5","2","5","6","1","4","0","0","5","0","5","5","5","0","5","5","5","4","4","3","0","0","0","3","3","0","5","2","2","4","4","4","1","6","6","6","6","4","4","6","6","0","4","2","2","4","3","3","agree","75.20000000298023","","","","","","","","<div style=""font-size:60px;"">?</div>","76","10","1","0.8"
"image-keyboard-response","54","387542","0.0-11.0-0.10","vbof7925wnw8b3s","1","611dbeedf19e4698d963ff1f","20","02/2001","single","english ","Cantonese, Vietnamese","Female","Asian","No","High School","Yes, Undergraduate studies","n/a","n/a","n/a","6","1","2","0","3","0.49999997999999996","stim/N000.jpg","65","65","0.366666672","3","0","4","","4","2","3","1","0","4","4","4","0","1","0","0","5","5","2","5","6","1","4","0","0","5","0","5","5","5","0","5","5","5","4","4","3","0","0","0","3","3","0","5","2","2","4","4","4","1","6","6","6","6","4","4","6","6","0","4","2","2","4","3","3","agree","null","","","","","","","","stim/H100.jpg","null","","",""
"html-keyboard-response","55","387774","0.0-11.0-1.10","vbof7925wnw8b3s","1","611dbeedf19e4698d963ff1f","20","02/2001","single","english ","Cantonese, Vietnamese","Female","Asian","No","High School","Yes, Undergraduate studies","n/a","n/a","n/a","6","1","2","0","3","0.49999997999999996","stim/N000.jpg","65","65","0.366666672","3","0","4","","4","2","3","1","0","4","4","4","0","1","0","0","5","5","2","5","6","1","4","0","0","5","0","5","5","5","0","5","5","5","4","4","3","0","0","0","3","3","0","5","2","2","4","4","4","1","6","6","6","6","4","4","6","6","0","4","2","2","4","3","3","agree","231","","","","","","","","<div style=""font-size:60px;"">?</div>","65","11","1","0.8"
"image-keyboard-response","56","388779","0.0-11.0-0.11","vbof7925wnw8b3s","1","611dbeedf19e4698d963ff1f","20","02/2001","single","english ","Cantonese, Vietnamese","Female","Asian","No","High School","Yes, Undergraduate studies","n/a","n/a","n/a","6","1","2","0","3","0.49999997999999996","stim/N000.jpg","65","65","0.366666672","3","0","4","","4","2","3","1","0","4","4","4","0","1","0","0","5","5","2","5","6","1","4","0","0","5","0","5","5","5","0","5","5","5","4","4","3","0","0","0","3","3","0","5","2","2","4","4","4","1","6","6","6","6","4","4","6","6","0","4","2","2","4","3","3","agree","null","","","","","","","","stim/H130.jpg","null","","",""
"html-keyboard-response","57","388971","0.0-11.0-1.11","vbof7925wnw8b3s","1","611dbeedf19e4698d963ff1f","20","02/2001","single","english ","Cantonese, Vietnamese","Female","Asian","No","High School","Yes, Undergraduate studies","n/a","n/a","n/a","6","1","2","0","3","0.49999997999999996","stim/N000.jpg","65","65","0.366666672","3","0","4","","4","2","3","1","0","4","4","4","0","1","0","0","5","5","2","5","6","1","4","0","0","5","0","5","5","5","0","5","5","5","4","4","3","0","0","0","3","3","0","5","2","2","4","4","4","1","6","6","6","6","4","4","6","6","0","4","2","2","4","3","3","agree","191.1000000089407","","","","","","","","<div style=""font-size:60px;"">?</div>","65","12","1","0.8"
"image-keyboard-response","58","390000","0.0-11.0-0.12","vbof7925wnw8b3s","1","611dbeedf19e4698d963ff1f","20","02/2001","single","english ","Cantonese, Vietnamese","Female","Asian","No","High School","Yes, Undergraduate studies","n/a","n/a","n/a","6","1","2","0","3","0.49999997999999996","stim/N000.jpg","65","65","0.366666672","3","0","4","","4","2","3","1","0","4","4","4","0","1","0","0","5","5","2","5","6","1","4","0","0","5","0","5","5","5","0","5","5","5","4","4","3","0","0","0","3","3","0","5","2","2","4","4","4","1","6","6","6","6","4","4","6","6","0","4","2","2","4","3","3","agree","null","","","","","","","","stim/H200.jpg","null","","",""
"html-keyboard-response","59","390163","0.0-11.0-1.12","vbof7925wnw8b3s","1","611dbeedf19e4698d963ff1f","20","02/2001","single","english ","Cantonese, Vietnamese","Female","Asian","No","High School","Yes, Undergraduate studies","n/a","n/a","n/a","6","1","2","0","3","0.49999997999999996","stim/N000.jpg","65","65","0.366666672","3","0","4","","4","2","3","1","0","4","4","4","0","1","0","0","5","5","2","5","6","1","4","0","0","5","0","5","5","5","0","5","5","5","4","4","3","0","0","0","3","3","0","5","2","2","4","4","4","1","6","6","6","6","4","4","6","6","0","4","2","2","4","3","3","agree","162","","","","","","","","<div style=""font-size:60px;"">?</div>","65","13","1","0.8"
"image-keyboard-response","60","391173","0.0-11.0-0.13","vbof7925wnw8b3s","1","611dbeedf19e4698d963ff1f","20","02/2001","single","english ","Cantonese, Vietnamese","Female","Asian","No","High School","Yes, Undergraduate studies","n/a","n/a","n/a","6","1","2","0","3","0.49999997999999996","stim/N000.jpg","65","65","0.366666672","3","0","4","","4","2","3","1","0","4","4","4","0","1","0","0","5","5","2","5","6","1","4","0","0","5","0","5","5","5","0","5","5","5","4","4","3","0","0","0","3","3","0","5","2","2","4","4","4","1","6","6","6","6","4","4","6","6","0","4","2","2","4","3","3","agree","null","","","","","","","","stim/H080.jpg","null","","",""
"html-keyboard-response","61","395321","0.0-11.0-1.13","vbof7925wnw8b3s","1","611dbeedf19e4698d963ff1f","20","02/2001","single","english ","Cantonese, Vietnamese","Female","Asian","No","High School","Yes, Undergraduate studies","n/a","n/a","n/a","6","1","2","0","3","0.49999997999999996","stim/N000.jpg","65","65","0.366666672","3","0","4","","4","2","3","1","0","4","4","4","0","1","0","0","5","5","2","5","6","1","4","0","0","5","0","5","5","5","0","5","5","5","4","4","3","0","0","0","3","3","0","5","2","2","4","4","4","1","6","6","6","6","4","4","6","6","0","4","2","2","4","3","3","agree","4146.399999991059","","","","","","","","<div style=""font-size:60px;"">?</div>","65","14","1","0.8"
"image-keyboard-response","62","396338","0.0-11.0-0.14","vbof7925wnw8b3s","1","611dbeedf19e4698d963ff1f","20","02/2001","single","english ","Cantonese, Vietnamese","Female","Asian","No","High School","Yes, Undergraduate studies","n/a","n/a","n/a","6","1","2","0","3","0.49999997999999996","stim/N000.jpg","65","65","0.366666672","3","0","4","","4","2","3","1","0","4","4","4","0","1","0","0","5","5","2","5","6","1","4","0","0","5","0","5","5","5","0","5","5","5","4","4","3","0","0","0","3","3","0","5","2","2","4","4","4","1","6","6","6","6","4","4","6","6","0","4","2","2","4","3","3","agree","null","","","","","","","","stim/H120.jpg","null","","",""
"html-keyboard-response","63","396796","0.0-11.0-1.14","vbof7925wnw8b3s","1","611dbeedf19e4698d963ff1f","20","02/2001","single","english ","Cantonese, Vietnamese","Female","Asian","No","High School","Yes, Undergraduate studies","n/a","n/a","n/a","6","1","2","0","3","0.49999997999999996","stim/N000.jpg","65","65","0.366666672","3","0","4","","4","2","3","1","0","4","4","4","0","1","0","0","5","5","2","5","6","1","4","0","0","5","0","5","5","5","0","5","5","5","4","4","3","0","0","0","3","3","0","5","2","2","4","4","4","1","6","6","6","6","4","4","6","6","0","4","2","2","4","3","3","agree","457.09999999403954","","","","","","","","<div style=""font-size:60px;"">?</div>","65","15","1","0.8"
"image-keyboard-response","64","397803","0.0-11.0-0.15","vbof7925wnw8b3s","1","611dbeedf19e4698d963ff1f","20","02/2001","single","english ","Cantonese, Vietnamese","Female","Asian","No","High School","Yes, Undergraduate studies","n/a","n/a","n/a","6","1","2","0","3","0.49999997999999996","stim/N000.jpg","65","65","0.366666672","3","0","4","","4","2","3","1","0","4","4","4","0","1","0","0","5","5","2","5","6","1","4","0","0","5","0","5","5","5","0","5","5","5","4","4","3","0","0","0","3","3","0","5","2","2","4","4","4","1","6","6","6","6","4","4","6","6","0","4","2","2","4","3","3","agree","null","","","","","","","","stim/H100.jpg","null","","",""
"html-keyboard-response","65","398394","0.0-11.0-1.15","vbof7925wnw8b3s","1","611dbeedf19e4698d963ff1f","20","02/2001","single","english ","Cantonese, Vietnamese","Female","Asian","No","High School","Yes, Undergraduate studies","n/a","n/a","n/a","6","1","2","0","3","0.49999997999999996","stim/N000.jpg","65","65","0.366666672","3","0","4","","4","2","3","1","0","4","4","4","0","1","0","0","5","5","2","5","6","1","4","0","0","5","0","5","5","5","0","5","5","5","4","4","3","0","0","0","3","3","0","5","2","2","4","4","4","1","6","6","6","6","4","4","6","6","0","4","2","2","4","3","3","agree","589.5","","","","","","","","<div style=""font-size:60px;"">?</div>","65","16","1","0.8"
"image-keyboard-response","66","399408","0.0-11.0-0.16","vbof7925wnw8b3s","1","611dbeedf19e4698d963ff1f","20","02/2001","single","english ","Cantonese, Vietnamese","Female","Asian","No","High School","Yes, Undergraduate studies","n/a","n/a","n/a","6","1","2","0","3","0.49999997999999996","stim/N000.jpg","65","65","0.366666672","3","0","4","","4","2","3","1","0","4","4","4","0","1","0","0","5","5","2","5","6","1","4","0","0","5","0","5","5","5","0","5","5","5","4","4","3","0","0","0","3","3","0","5","2","2","4","4","4","1","6","6","6","6","4","4","6","6","0","4","2","2","4","3","3","agree","null","","","","","","","","stim/H090.jpg","null","","",""
"html-keyboard-response","67","399645","0.0-11.0-1.16","vbof7925wnw8b3s","1","611dbeedf19e4698d963ff1f","20","02/2001","single","english ","Cantonese, Vietnamese","Female","Asian","No","High School","Yes, Undergraduate studies","n/a","n/a","n/a","6","1","2","0","3","0.49999997999999996","stim/N000.jpg","65","65","0.366666672","3","0","4","","4","2","3","1","0","4","4","4","0","1","0","0","5","5","2","5","6","1","4","0","0","5","0","5","5","5","0","5","5","5","4","4","3","0","0","0","3","3","0","5","2","2","4","4","4","1","6","6","6","6","4","4","6","6","0","4","2","2","4","3","3","agree","235.70000000298023","","","","","","","","<div style=""font-size:60px;"">?</div>","65","17","1","0.8"
"image-keyboard-response","68","400652","0.0-11.0-0.17","vbof7925wnw8b3s","1","611dbeedf19e4698d963ff1f","20","02/2001","single","english ","Cantonese, Vietnamese","Female","Asian","No","High School","Yes, Undergraduate studies","n/a","n/a","n/a","6","1","2","0","3","0.49999997999999996","stim/N000.jpg","65","65","0.366666672","3","0","4","","4","2","3","1","0","4","4","4","0","1","0","0","5","5","2","5","6","1","4","0","0","5","0","5","5","5","0","5","5","5","4","4","3","0","0","0","3","3","0","5","2","2","4","4","4","1","6","6","6","6","4","4","6","6","0","4","2","2","4","3","3","agree","null","","","","","","","","stim/H280.jpg","null","","",""
"html-keyboard-response","69","402475","0.0-11.0-1.17","vbof7925wnw8b3s","1","611dbeedf19e4698d963ff1f","20","02/2001","single","english ","Cantonese, Vietnamese","Female","Asian","No","High School","Yes, Undergraduate studies","n/a","n/a","n/a","6","1","2","0","3","0.49999997999999996","stim/N000.jpg","65","65","0.366666672","3","0","4","","4","2","3","1","0","4","4","4","0","1","0","0","5","5","2","5","6","1","4","0","0","5","0","5","5","5","0","5","5","5","4","4","3","0","0","0","3","3","0","5","2","2","4","4","4","1","6","6","6","6","4","4","6","6","0","4","2","2","4","3","3","agree","1821.7999999970198","","","","","","","","<div style=""font-size:60px;"">?</div>","65","18","1","0.8"
"image-keyboard-response","70","403486","0.0-11.0-0.18","vbof7925wnw8b3s","1","611dbeedf19e4698d963ff1f","20","02/2001","single","english ","Cantonese, Vietnamese","Female","Asian","No","High School","Yes, Undergraduate studies","n/a","n/a","n/a","6","1","2","0","3","0.49999997999999996","stim/N000.jpg","65","65","0.366666672","3","0","4","","4","2","3","1","0","4","4","4","0","1","0","0","5","5","2","5","6","1","4","0","0","5","0","5","5","5","0","5","5","5","4","4","3","0","0","0","3","3","0","5","2","2","4","4","4","1","6","6","6","6","4","4","6","6","0","4","2","2","4","3","3","agree","null","","","","","","","","stim/H200.jpg","null","","",""
"html-keyboard-response","71","403939","0.0-11.0-1.18","vbof7925wnw8b3s","1","611dbeedf19e4698d963ff1f","20","02/2001","single","english ","Cantonese, Vietnamese","Female","Asian","No","High School","Yes, Undergraduate studies","n/a","n/a","n/a","6","1","2","0","3","0.49999997999999996","stim/N000.jpg","65","65","0.366666672","3","0","4","","4","2","3","1","0","4","4","4","0","1","0","0","5","5","2","5","6","1","4","0","0","5","0","5","5","5","0","5","5","5","4","4","3","0","0","0","3","3","0","5","2","2","4","4","4","1","6","6","6","6","4","4","6","6","0","4","2","2","4","3","3","agree","451.20000000298023","","","","","","","","<div style=""font-size:60px;"">?</div>","65","19","1","0.8"
"image-keyboard-response","72","404945","0.0-11.0-0.19","vbof7925wnw8b3s","1","611dbeedf19e4698d963ff1f","20","02/2001","single","english ","Cantonese, Vietnamese","Female","Asian","No","High School","Yes, Undergraduate studies","n/a","n/a","n/a","6","1","2","0","3","0.49999997999999996","stim/N000.jpg","65","65","0.366666672","3","0","4","","4","2","3","1","0","4","4","4","0","1","0","0","5","5","2","5","6","1","4","0","0","5","0","5","5","5","0","5","5","5","4","4","3","0","0","0","3","3","0","5","2","2","4","4","4","1","6","6","6","6","4","4","6","6","0","4","2","2","4","3","3","agree","null","","","","","","","","stim/H100.jpg","null","","",""
"html-keyboard-response","73","405549","0.0-11.0-1.19","vbof7925wnw8b3s","1","611dbeedf19e4698d963ff1f","20","02/2001","single","english ","Cantonese, Vietnamese","Female","Asian","No","High School","Yes, Undergraduate studies","n/a","n/a","n/a","6","1","2","0","3","0.49999997999999996","stim/N000.jpg","65","65","0.366666672","3","0","4","","4","2","3","1","0","4","4","4","0","1","0","0","5","5","2","5","6","1","4","0","0","5","0","5","5","5","0","5","5","5","4","4","3","0","0","0","3","3","0","5","2","2","4","4","4","1","6","6","6","6","4","4","6","6","0","4","2","2","4","3","3","agree","603.2999999970198","","","","","","","","<div style=""font-size:60px;"">?</div>","65","20","1","0.8"
"image-keyboard-response","74","406576","0.0-11.0-0.20","vbof7925wnw8b3s","1","611dbeedf19e4698d963ff1f","20","02/2001","single","english ","Cantonese, Vietnamese","Female","Asian","No","High School","Yes, Undergraduate studies","n/a","n/a","n/a","6","1","2","0","3","0.49999997999999996","stim/N000.jpg","65","65","0.366666672","3","0","4","","4","2","3","1","0","4","4","4","0","1","0","0","5","5","2","5","6","1","4","0","0","5","0","5","5","5","0","5","5","5","4","4","3","0","0","0","3","3","0","5","2","2","4","4","4","1","6","6","6","6","4","4","6","6","0","4","2","2","4","3","3","agree","null","","","","","","","","stim/H260.jpg","null","","",""
"html-keyboard-response","75","406994","0.0-11.0-1.20","vbof7925wnw8b3s","1","611dbeedf19e4698d963ff1f","20","02/2001","single","english ","Cantonese, Vietnamese","Female","Asian","No","High School","Yes, Undergraduate studies","n/a","n/a","n/a","6","1","2","0","3","0.49999997999999996","stim/N000.jpg","65","65","0.366666672","3","0","4","","4","2","3","1","0","4","4","4","0","1","0","0","5","5","2","5","6","1","4","0","0","5","0","5","5","5","0","5","5","5","4","4","3","0","0","0","3","3","0","5","2","2","4","4","4","1","6","6","6","6","4","4","6","6","0","4","2","2","4","3","3","agree","417.3999999910593","","","","","","","","<div style=""font-size:60px;"">?</div>","65","21","1","0.8"
"image-keyboard-response","76","408008","0.0-11.0-0.21","vbof7925wnw8b3s","1","611dbeedf19e4698d963ff1f","20","02/2001","single","english ","Cantonese, Vietnamese","Female","Asian","No","High School","Yes, Undergraduate studies","n/a","n/a","n/a","6","1","2","0","3","0.49999997999999996","stim/N000.jpg","65","65","0.366666672","3","0","4","","4","2","3","1","0","4","4","4","0","1","0","0","5","5","2","5","6","1","4","0","0","5","0","5","5","5","0","5","5","5","4","4","3","0","0","0","3","3","0","5","2","2","4","4","4","1","6","6","6","6","4","4","6","6","0","4","2","2","4","3","3","agree","null","","","","","","","","stim/H260.jpg","null","","",""
"html-keyboard-response","77","408413","0.0-11.0-1.21","vbof7925wnw8b3s","1","611dbeedf19e4698d963ff1f","20","02/2001","single","english ","Cantonese, Vietnamese","Female","Asian","No","High School","Yes, Undergraduate studies","n/a","n/a","n/a","6","1","2","0","3","0.49999997999999996","stim/N000.jpg","65","65","0.366666672","3","0","4","","4","2","3","1","0","4","4","4","0","1","0","0","5","5","2","5","6","1","4","0","0","5","0","5","5","5","0","5","5","5","4","4","3","0","0","0","3","3","0","5","2","2","4","4","4","1","6","6","6","6","4","4","6","6","0","4","2","2","4","3","3","agree","403.70000000298023","","","","","","","","<div style=""font-size:60px;"">?</div>","65","22","1","0.8"
"image-keyboard-response","78","409431","0.0-11.0-0.22","vbof7925wnw8b3s","1","611dbeedf19e4698d963ff1f","20","02/2001","single","english ","Cantonese, Vietnamese","Female","Asian","No","High School","Yes, Undergraduate studies","n/a","n/a","n/a","6","1","2","0","3","0.49999997999999996","stim/N000.jpg","65","65","0.366666672","3","0","4","","4","2","3","1","0","4","4","4","0","1","0","0","5","5","2","5","6","1","4","0","0","5","0","5","5","5","0","5","5","5","4","4","3","0","0","0","3","3","0","5","2","2","4","4","4","1","6","6","6","6","4","4","6","6","0","4","2","2","4","3","3","agree","null","","","","","","","","stim/H140.jpg","null","","",""
"html-keyboard-response","79","409789","0.0-11.0-1.22","vbof7925wnw8b3s","1","611dbeedf19e4698d963ff1f","20","02/2001","single","english ","Cantonese, Vietnamese","Female","Asian","No","High School","Yes, Undergraduate studies","n/a","n/a","n/a","6","1","2","0","3","0.49999997999999996","stim/N000.jpg","65","65","0.366666672","3","0","4","","4","2","3","1","0","4","4","4","0","1","0","0","5","5","2","5","6","1","4","0","0","5","0","5","5","5","0","5","5","5","4","4","3","0","0","0","3","3","0","5","2","2","4","4","4","1","6","6","6","6","4","4","6","6","0","4","2","2","4","3","3","agree","357","","","","","","","","<div style=""font-size:60px;"">?</div>","65","23","1","0.8"
"image-keyboard-response","80","410797","0.0-11.0-0.23","vbof7925wnw8b3s","1","611dbeedf19e4698d963ff1f","20","02/2001","single","english ","Cantonese, Vietnamese","Female","Asian","No","High School","Yes, Undergraduate studies","n/a","n/a","n/a","6","1","2","0","3","0.49999997999999996","stim/N000.jpg","65","65","0.366666672","3","0","4","","4","2","3","1","0","4","4","4","0","1","0","0","5","5","2","5","6","1","4","0","0","5","0","5","5","5","0","5","5","5","4","4","3","0","0","0","3","3","0","5","2","2","4","4","4","1","6","6","6","6","4","4","6","6","0","4","2","2","4","3","3","agree","null","","","","","","","","stim/H210.jpg","null","","",""
"html-keyboard-response","81","411406","0.0-11.0-1.23","vbof7925wnw8b3s","1","611dbeedf19e4698d963ff1f","20","02/2001","single","english ","Cantonese, Vietnamese","Female","Asian","No","High School","Yes, Undergraduate studies","n/a","n/a","n/a","6","1","2","0","3","0.49999997999999996","stim/N000.jpg","65","65","0.366666672","3","0","4","","4","2","3","1","0","4","4","4","0","1","0","0","5","5","2","5","6","1","4","0","0","5","0","5","5","5","0","5","5","5","4","4","3","0","0","0","3","3","0","5","2","2","4","4","4","1","6","6","6","6","4","4","6","6","0","4","2","2","4","3","3","agree","607.7999999970198","","","","","","","","<div style=""font-size:60px;"">?</div>","65","24","1","0.8"
"image-keyboard-response","82","412429","0.0-11.0-0.24","vbof7925wnw8b3s","1","611dbeedf19e4698d963ff1f","20","02/2001","single","english ","Cantonese, Vietnamese","Female","Asian","No","High School","Yes, Undergraduate studies","n/a","n/a","n/a","6","1","2","0","3","0.49999997999999996","stim/N000.jpg","65","65","0.366666672","3","0","4","","4","2","3","1","0","4","4","4","0","1","0","0","5","5","2","5","6","1","4","0","0","5","0","5","5","5","0","5","5","5","4","4","3","0","0","0","3","3","0","5","2","2","4","4","4","1","6","6","6","6","4","4","6","6","0","4","2","2","4","3","3","agree","null","","","","","","","","stim/T020.jpg","null","","",""
"html-keyboard-response","83","413129","0.0-11.0-1.24","vbof7925wnw8b3s","1","611dbeedf19e4698d963ff1f","20","02/2001","single","english ","Cantonese, Vietnamese","Female","Asian","No","High School","Yes, Undergraduate studies","n/a","n/a","n/a","6","1","2","0","3","0.49999997999999996","stim/N000.jpg","65","65","0.366666672","3","0","4","","4","2","3","1","0","4","4","4","0","1","0","0","5","5","2","5","6","1","4","0","0","5","0","5","5","5","0","5","5","5","4","4","3","0","0","0","3","3","0","5","2","2","4","4","4","1","6","6","6","6","4","4","6","6","0","4","2","2","4","3","3","agree","699.2000000029802","","","","","","","","<div style=""font-size:60px;"">?</div>","76","25","1","0.8"
"image-keyboard-response","84","414154","0.0-11.0-0.25","vbof7925wnw8b3s","1","611dbeedf19e4698d963ff1f","20","02/2001","single","english ","Cantonese, Vietnamese","Female","Asian","No","High School","Yes, Undergraduate studies","n/a","n/a","n/a","6","1","2","0","3","0.49999997999999996","stim/N000.jpg","65","65","0.366666672","3","0","4","","4","2","3","1","0","4","4","4","0","1","0","0","5","5","2","5","6","1","4","0","0","5","0","5","5","5","0","5","5","5","4","4","3","0","0","0","3","3","0","5","2","2","4","4","4","1","6","6","6","6","4","4","6","6","0","4","2","2","4","3","3","agree","null","","","","","","","","stim/T010.jpg","null","","",""
"html-keyboard-response","85","414642","0.0-11.0-1.25","vbof7925wnw8b3s","1","611dbeedf19e4698d963ff1f","20","02/2001","single","english ","Cantonese, Vietnamese","Female","Asian","No","High School","Yes, Undergraduate studies","n/a","n/a","n/a","6","1","2","0","3","0.49999997999999996","stim/N000.jpg","65","65","0.366666672","3","0","4","","4","2","3","1","0","4","4","4","0","1","0","0","5","5","2","5","6","1","4","0","0","5","0","5","5","5","0","5","5","5","4","4","3","0","0","0","3","3","0","5","2","2","4","4","4","1","6","6","6","6","4","4","6","6","0","4","2","2","4","3","3","agree","486.5","","","","","","","","<div style=""font-size:60px;"">?</div>","76","26","1","0.8"
"image-keyboard-response","86","415650","0.0-11.0-0.26","vbof7925wnw8b3s","1","611dbeedf19e4698d963ff1f","20","02/2001","single","english ","Cantonese, Vietnamese","Female","Asian","No","High School","Yes, Undergraduate studies","n/a","n/a","n/a","6","1","2","0","3","0.49999997999999996","stim/N000.jpg","65","65","0.366666672","3","0","4","","4","2","3","1","0","4","4","4","0","1","0","0","5","5","2","5","6","1","4","0","0","5","0","5","5","5","0","5","5","5","4","4","3","0","0","0","3","3","0","5","2","2","4","4","4","1","6","6","6","6","4","4","6","6","0","4","2","2","4","3","3","agree","null","","","","","","","","stim/H270.jpg","null","","",""
"html-keyboard-response","87","416042","0.0-11.0-1.26","vbof7925wnw8b3s","1","611dbeedf19e4698d963ff1f","20","02/2001","single","english ","Cantonese, Vietnamese","Female","Asian","No","High School","Yes, Undergraduate studies","n/a","n/a","n/a","6","1","2","0","3","0.49999997999999996","stim/N000.jpg","65","65","0.366666672","3","0","4","","4","2","3","1","0","4","4","4","0","1","0","0","5","5","2","5","6","1","4","0","0","5","0","5","5","5","0","5","5","5","4","4","3","0","0","0","3","3","0","5","2","2","4","4","4","1","6","6","6","6","4","4","6","6","0","4","2","2","4","3","3","agree","388","","","","","","","","<div style=""font-size:60px;"">?</div>","65","27","1","0.8"
"image-keyboard-response","88","417056","0.0-11.0-0.27","vbof7925wnw8b3s","1","611dbeedf19e4698d963ff1f","20","02/2001","single","english ","Cantonese, Vietnamese","Female","Asian","No","High School","Yes, Undergraduate studies","n/a","n/a","n/a","6","1","2","0","3","0.49999997999999996","stim/N000.jpg","65","65","0.366666672","3","0","4","","4","2","3","1","0","4","4","4","0","1","0","0","5","5","2","5","6","1","4","0","0","5","0","5","5","5","0","5","5","5","4","4","3","0","0","0","3","3","0","5","2","2","4","4","4","1","6","6","6","6","4","4","6","6","0","4","2","2","4","3","3","agree","null","","","","","","","","stim/H150.jpg","null","","",""
"html-keyboard-response","89","417689","0.0-11.0-1.27","vbof7925wnw8b3s","1","611dbeedf19e4698d963ff1f","20","02/2001","single","english ","Cantonese, Vietnamese","Female","Asian","No","High School","Yes, Undergraduate studies","n/a","n/a","n/a","6","1","2","0","3","0.49999997999999996","stim/N000.jpg","65","65","0.366666672","3","0","4","","4","2","3","1","0","4","4","4","0","1","0","0","5","5","2","5","6","1","4","0","0","5","0","5","5","5","0","5","5","5","4","4","3","0","0","0","3","3","0","5","2","2","4","4","4","1","6","6","6","6","4","4","6","6","0","4","2","2","4","3","3","agree","631.9000000059605","","","","","","","","<div style=""font-size:60px;"">?</div>","65","28","1","0.8"
"image-keyboard-response","90","418712","0.0-11.0-0.28","vbof7925wnw8b3s","1","611dbeedf19e4698d963ff1f","20","02/2001","single","english ","Cantonese, Vietnamese","Female","Asian","No","High School","Yes, Undergraduate studies","n/a","n/a","n/a","6","1","2","0","3","0.49999997999999996","stim/N000.jpg","65","65","0.366666672","3","0","4","","4","2","3","1","0","4","4","4","0","1","0","0","5","5","2","5","6","1","4","0","0","5","0","5","5","5","0","5","5","5","4","4","3","0","0","0","3","3","0","5","2","2","4","4","4","1","6","6","6","6","4","4","6","6","0","4","2","2","4","3","3","agree","null","","","","","","","","stim/H190.jpg","null","","",""
"html-keyboard-response","91","419190","0.0-11.0-1.28","vbof7925wnw8b3s","1","611dbeedf19e4698d963ff1f","20","02/2001","single","english ","Cantonese, Vietnamese","Female","Asian","No","High School","Yes, Undergraduate studies","n/a","n/a","n/a","6","1","2","0","3","0.49999997999999996","stim/N000.jpg","65","65","0.366666672","3","0","4","","4","2","3","1","0","4","4","4","0","1","0","0","5","5","2","5","6","1","4","0","0","5","0","5","5","5","0","5","5","5","4","4","3","0","0","0","3","3","0","5","2","2","4","4","4","1","6","6","6","6","4","4","6","6","0","4","2","2","4","3","3","agree","475.70000000298023","","","","","","","","<div style=""font-size:60px;"">?</div>","65","29","1","0.8"
"image-keyboard-response","92","420211","0.0-11.0-0.29","vbof7925wnw8b3s","1","611dbeedf19e4698d963ff1f","20","02/2001","single","english ","Cantonese, Vietnamese","Female","Asian","No","High School","Yes, Undergraduate studies","n/a","n/a","n/a","6","1","2","0","3","0.49999997999999996","stim/N000.jpg","65","65","0.366666672","3","0","4","","4","2","3","1","0","4","4","4","0","1","0","0","5","5","2","5","6","1","4","0","0","5","0","5","5","5","0","5","5","5","4","4","3","0","0","0","3","3","0","5","2","2","4","4","4","1","6","6","6","6","4","4","6","6","0","4","2","2","4","3","3","agree","null","","","","","","","","stim/T270.jpg","null","","",""
"html-keyboard-response","93","420898","0.0-11.0-1.29","vbof7925wnw8b3s","1","611dbeedf19e4698d963ff1f","20","02/2001","single","english ","Cantonese, Vietnamese","Female","Asian","No","High School","Yes, Undergraduate studies","n/a","n/a","n/a","6","1","2","0","3","0.49999997999999996","stim/N000.jpg","65","65","0.366666672","3","0","4","","4","2","3","1","0","4","4","4","0","1","0","0","5","5","2","5","6","1","4","0","0","5","0","5","5","5","0","5","5","5","4","4","3","0","0","0","3","3","0","5","2","2","4","4","4","1","6","6","6","6","4","4","6","6","0","4","2","2","4","3","3","agree","686.0999999940395","","","","","","","","<div style=""font-size:60px;"">?</div>","76","30","1","0.8"
"image-keyboard-response","94","421919","0.0-11.0-0.30","vbof7925wnw8b3s","1","611dbeedf19e4698d963ff1f","20","02/2001","single","english ","Cantonese, Vietnamese","Female","Asian","No","High School","Yes, Undergraduate studies","n/a","n/a","n/a","6","1","2","0","3","0.49999997999999996","stim/N000.jpg","65","65","0.366666672","3","0","4","","4","2","3","1","0","4","4","4","0","1","0","0","5","5","2","5","6","1","4","0","0","5","0","5","5","5","0","5","5","5","4","4","3","0","0","0","3","3","0","5","2","2","4","4","4","1","6","6","6","6","4","4","6","6","0","4","2","2","4","3","3","agree","null","","","","","","","","stim/H090.jpg","null","","",""
"html-keyboard-response","95","422366","0.0-11.0-1.30","vbof7925wnw8b3s","1","611dbeedf19e4698d963ff1f","20","02/2001","single","english ","Cantonese, Vietnamese","Female","Asian","No","High School","Yes, Undergraduate studies","n/a","n/a","n/a","6","1","2","0","3","0.49999997999999996","stim/N000.jpg","65","65","0.366666672","3","0","4","","4","2","3","1","0","4","4","4","0","1","0","0","5","5","2","5","6","1","4","0","0","5","0","5","5","5","0","5","5","5","4","4","3","0","0","0","3","3","0","5","2","2","4","4","4","1","6","6","6","6","4","4","6","6","0","4","2","2","4","3","3","agree","445.90000000596046","","","","","","","","<div style=""font-size:60px;"">?</div>","65","31","1","0.8"
"image-keyboard-response","96","423376","0.0-11.0-0.31","vbof7925wnw8b3s","1","611dbeedf19e4698d963ff1f","20","02/2001","single","english ","Cantonese, Vietnamese","Female","Asian","No","High School","Yes, Undergraduate studies","n/a","n/a","n/a","6","1","2","0","3","0.49999997999999996","stim/N000.jpg","65","65","0.366666672","3","0","4","","4","2","3","1","0","4","4","4","0","1","0","0","5","5","2","5","6","1","4","0","0","5","0","5","5","5","0","5","5","5","4","4","3","0","0","0","3","3","0","5","2","2","4","4","4","1","6","6","6","6","4","4","6","6","0","4","2","2","4","3","3","agree","null","","","","","","","","stim/H070.jpg","null","","",""
"html-keyboard-response","97","424002","0.0-11.0-1.31","vbof7925wnw8b3s","1","611dbeedf19e4698d963ff1f","20","02/2001","single","english ","Cantonese, Vietnamese","Female","Asian","No","High School","Yes, Undergraduate studies","n/a","n/a","n/a","6","1","2","0","3","0.49999997999999996","stim/N000.jpg","65","65","0.366666672","3","0","4","","4","2","3","1","0","4","4","4","0","1","0","0","5","5","2","5","6","1","4","0","0","5","0","5","5","5","0","5","5","5","4","4","3","0","0","0","3","3","0","5","2","2","4","4","4","1","6","6","6","6","4","4","6","6","0","4","2","2","4","3","3","agree","625.1000000089407","","","","","","","","<div style=""font-size:60px;"">?</div>","65","32","1","0.8"
"image-keyboard-response","98","425008","0.0-11.0-0.32","vbof7925wnw8b3s","1","611dbeedf19e4698d963ff1f","20","02/2001","single","english ","Cantonese, Vietnamese","Female","Asian","No","High School","Yes, Undergraduate studies","n/a","n/a","n/a","6","1","2","0","3","0.49999997999999996","stim/N000.jpg","65","65","0.366666672","3","0","4","","4","2","3","1","0","4","4","4","0","1","0","0","5","5","2","5","6","1","4","0","0","5","0","5","5","5","0","5","5","5","4","4","3","0","0","0","3","3","0","5","2","2","4","4","4","1","6","6","6","6","4","4","6","6","0","4","2","2","4","3","3","agree","null","","","","","","","","stim/T250.jpg","null","","",""
"html-keyboard-response","99","425476","0.0-11.0-1.32","vbof7925wnw8b3s","1","611dbeedf19e4698d963ff1f","20","02/2001","single","english ","Cantonese, Vietnamese","Female","Asian","No","High School","Yes, Undergraduate studies","n/a","n/a","n/a","6","1","2","0","3","0.49999997999999996","stim/N000.jpg","65","65","0.366666672","3","0","4","","4","2","3","1","0","4","4","4","0","1","0","0","5","5","2","5","6","1","4","0","0","5","0","5","5","5","0","5","5","5","4","4","3","0","0","0","3","3","0","5","2","2","4","4","4","1","6","6","6","6","4","4","6","6","0","4","2","2","4","3","3","agree","466.80000001192093","","","","","","","","<div style=""font-size:60px;"">?</div>","76","33","1","0.8"
"image-keyboard-response","100","426486","0.0-11.0-0.33","vbof7925wnw8b3s","1","611dbeedf19e4698d963ff1f","20","02/2001","single","english ","Cantonese, Vietnamese","Female","Asian","No","High School","Yes, Undergraduate studies","n/a","n/a","n/a","6","1","2","0","3","0.49999997999999996","stim/N000.jpg","65","65","0.366666672","3","0","4","","4","2","3","1","0","4","4","4","0","1","0","0","5","5","2","5","6","1","4","0","0","5","0","5","5","5","0","5","5","5","4","4","3","0","0","0","3","3","0","5","2","2","4","4","4","1","6","6","6","6","4","4","6","6","0","4","2","2","4","3","3","agree","null","","","","","","","","stim/H130.jpg","null","","",""
"html-keyboard-response","101","426812","0.0-11.0-1.33","vbof7925wnw8b3s","1","611dbeedf19e4698d963ff1f","20","02/2001","single","english ","Cantonese, Vietnamese","Female","Asian","No","High School","Yes, Undergraduate studies","n/a","n/a","n/a","6","1","2","0","3","0.49999997999999996","stim/N000.jpg","65","65","0.366666672","3","0","4","","4","2","3","1","0","4","4","4","0","1","0","0","5","5","2","5","6","1","4","0","0","5","0","5","5","5","0","5","5","5","4","4","3","0","0","0","3","3","0","5","2","2","4","4","4","1","6","6","6","6","4","4","6","6","0","4","2","2","4","3","3","agree","324.59999999403954","","","","","","","","<div style=""font-size:60px;"">?</div>","65","34","1","0.8"
"image-keyboard-response","102","427823","0.0-11.0-0.34","vbof7925wnw8b3s","1","611dbeedf19e4698d963ff1f","20","02/2001","single","english ","Cantonese, Vietnamese","Female","Asian","No","High School","Yes, Undergraduate studies","n/a","n/a","n/a","6","1","2","0","3","0.49999997999999996","stim/N000.jpg","65","65","0.366666672","3","0","4","","4","2","3","1","0","4","4","4","0","1","0","0","5","5","2","5","6","1","4","0","0","5","0","5","5","5","0","5","5","5","4","4","3","0","0","0","3","3","0","5","2","2","4","4","4","1","6","6","6","6","4","4","6","6","0","4","2","2","4","3","3","agree","null","","","","","","","","stim/H270.jpg","null","","",""
"html-keyboard-response","103","428273","0.0-11.0-1.34","vbof7925wnw8b3s","1","611dbeedf19e4698d963ff1f","20","02/2001","single","english ","Cantonese, Vietnamese","Female","Asian","No","High School","Yes, Undergraduate studies","n/a","n/a","n/a","6","1","2","0","3","0.49999997999999996","stim/N000.jpg","65","65","0.366666672","3","0","4","","4","2","3","1","0","4","4","4","0","1","0","0","5","5","2","5","6","1","4","0","0","5","0","5","5","5","0","5","5","5","4","4","3","0","0","0","3","3","0","5","2","2","4","4","4","1","6","6","6","6","4","4","6","6","0","4","2","2","4","3","3","agree","449.09999999403954","","","","","","","","<div style=""font-size:60px;"">?</div>","65","35","1","0.8"
"image-keyboard-response","104","429295","0.0-11.0-0.35","vbof7925wnw8b3s","1","611dbeedf19e4698d963ff1f","20","02/2001","single","english ","Cantonese, Vietnamese","Female","Asian","No","High School","Yes, Undergraduate studies","n/a","n/a","n/a","6","1","2","0","3","0.49999997999999996","stim/N000.jpg","65","65","0.366666672","3","0","4","","4","2","3","1","0","4","4","4","0","1","0","0","5","5","2","5","6","1","4","0","0","5","0","5","5","5","0","5","5","5","4","4","3","0","0","0","3","3","0","5","2","2","4","4","4","1","6","6","6","6","4","4","6","6","0","4","2","2","4","3","3","agree","null","","","","","","","","stim/T110.jpg","null","","",""
"html-keyboard-response","105","429737","0.0-11.0-1.35","vbof7925wnw8b3s","1","611dbeedf19e4698d963ff1f","20","02/2001","single","english ","Cantonese, Vietnamese","Female","Asian","No","High School","Yes, Undergraduate studies","n/a","n/a","n/a","6","1","2","0","3","0.49999997999999996","stim/N000.jpg","65","65","0.366666672","3","0","4","","4","2","3","1","0","4","4","4","0","1","0","0","5","5","2","5","6","1","4","0","0","5","0","5","5","5","0","5","5","5","4","4","3","0","0","0","3","3","0","5","2","2","4","4","4","1","6","6","6","6","4","4","6","6","0","4","2","2","4","3","3","agree","440.09999999403954","","","","","","","","<div style=""font-size:60px;"">?</div>","76","36","1","0.8"
"image-keyboard-response","106","430747","0.0-11.0-0.36","vbof7925wnw8b3s","1","611dbeedf19e4698d963ff1f","20","02/2001","single","english ","Cantonese, Vietnamese","Female","Asian","No","High School","Yes, Undergraduate studies","n/a","n/a","n/a","6","1","2","0","3","0.49999997999999996","stim/N000.jpg","65","65","0.366666672","3","0","4","","4","2","3","1","0","4","4","4","0","1","0","0","5","5","2","5","6","1","4","0","0","5","0","5","5","5","0","5","5","5","4","4","3","0","0","0","3","3","0","5","2","2","4","4","4","1","6","6","6","6","4","4","6","6","0","4","2","2","4","3","3","agree","null","","","","","","","","stim/H020.jpg","null","","",""
"html-keyboard-response","107","431112","0.0-11.0-1.36","vbof7925wnw8b3s","1","611dbeedf19e4698d963ff1f","20","02/2001","single","english ","Cantonese, Vietnamese","Female","Asian","No","High School","Yes, Undergraduate studies","n/a","n/a","n/a","6","1","2","0","3","0.49999997999999996","stim/N000.jpg","65","65","0.366666672","3","0","4","","4","2","3","1","0","4","4","4","0","1","0","0","5","5","2","5","6","1","4","0","0","5","0","5","5","5","0","5","5","5","4","4","3","0","0","0","3","3","0","5","2","2","4","4","4","1","6","6","6","6","4","4","6","6","0","4","2","2","4","3","3","agree","364.1000000089407","","","","","","","","<div style=""font-size:60px;"">?</div>","65","37","1","0.8"
"image-keyboard-response","108","432140","0.0-11.0-0.37","vbof7925wnw8b3s","1","611dbeedf19e4698d963ff1f","20","02/2001","single","english ","Cantonese, Vietnamese","Female","Asian","No","High School","Yes, Undergraduate studies","n/a","n/a","n/a","6","1","2","0","3","0.49999997999999996","stim/N000.jpg","65","65","0.366666672","3","0","4","","4","2","3","1","0","4","4","4","0","1","0","0","5","5","2","5","6","1","4","0","0","5","0","5","5","5","0","5","5","5","4","4","3","0","0","0","3","3","0","5","2","2","4","4","4","1","6","6","6","6","4","4","6","6","0","4","2","2","4","3","3","agree","null","","","","","","","","stim/H230.jpg","null","","",""
"html-keyboard-response","109","432501","0.0-11.0-1.37","vbof7925wnw8b3s","1","611dbeedf19e4698d963ff1f","20","02/2001","single","english ","Cantonese, Vietnamese","Female","Asian","No","High School","Yes, Undergraduate studies","n/a","n/a","n/a","6","1","2","0","3","0.49999997999999996","stim/N000.jpg","65","65","0.366666672","3","0","4","","4","2","3","1","0","4","4","4","0","1","0","0","5","5","2","5","6","1","4","0","0","5","0","5","5","5","0","5","5","5","4","4","3","0","0","0","3","3","0","5","2","2","4","4","4","1","6","6","6","6","4","4","6","6","0","4","2","2","4","3","3","agree","359.80000001192093","","","","","","","","<div style=""font-size:60px;"">?</div>","65","38","1","0.8"
"image-keyboard-response","110","433516","0.0-11.0-0.38","vbof7925wnw8b3s","1","611dbeedf19e4698d963ff1f","20","02/2001","single","english ","Cantonese, Vietnamese","Female","Asian","No","High School","Yes, Undergraduate studies","n/a","n/a","n/a","6","1","2","0","3","0.49999997999999996","stim/N000.jpg","65","65","0.366666672","3","0","4","","4","2","3","1","0","4","4","4","0","1","0","0","5","5","2","5","6","1","4","0","0","5","0","5","5","5","0","5","5","5","4","4","3","0","0","0","3","3","0","5","2","2","4","4","4","1","6","6","6","6","4","4","6","6","0","4","2","2","4","3","3","agree","null","","","","","","","","stim/T190.jpg","null","","",""
"html-keyboard-response","111","434164","0.0-11.0-1.38","vbof7925wnw8b3s","1","611dbeedf19e4698d963ff1f","20","02/2001","single","english ","Cantonese, Vietnamese","Female","Asian","No","High School","Yes, Undergraduate studies","n/a","n/a","n/a","6","1","2","0","3","0.49999997999999996","stim/N000.jpg","65","65","0.366666672","3","0","4","","4","2","3","1","0","4","4","4","0","1","0","0","5","5","2","5","6","1","4","0","0","5","0","5","5","5","0","5","5","5","4","4","3","0","0","0","3","3","0","5","2","2","4","4","4","1","6","6","6","6","4","4","6","6","0","4","2","2","4","3","3","agree","646.7999999970198","","","","","","","","<div style=""font-size:60px;"">?</div>","76","39","1","0.8"
"image-keyboard-response","112","435177","0.0-11.0-0.39","vbof7925wnw8b3s","1","611dbeedf19e4698d963ff1f","20","02/2001","single","english ","Cantonese, Vietnamese","Female","Asian","No","High School","Yes, Undergraduate studies","n/a","n/a","n/a","6","1","2","0","3","0.49999997999999996","stim/N000.jpg","65","65","0.366666672","3","0","4","","4","2","3","1","0","4","4","4","0","1","0","0","5","5","2","5","6","1","4","0","0","5","0","5","5","5","0","5","5","5","4","4","3","0","0","0","3","3","0","5","2","2","4","4","4","1","6","6","6","6","4","4","6","6","0","4","2","2","4","3","3","agree","null","","","","","","","","stim/H140.jpg","null","","",""
"html-keyboard-response","113","435654","0.0-11.0-1.39","vbof7925wnw8b3s","1","611dbeedf19e4698d963ff1f","20","02/2001","single","english ","Cantonese, Vietnamese","Female","Asian","No","High School","Yes, Undergraduate studies","n/a","n/a","n/a","6","1","2","0","3","0.49999997999999996","stim/N000.jpg","65","65","0.366666672","3","0","4","","4","2","3","1","0","4","4","4","0","1","0","0","5","5","2","5","6","1","4","0","0","5","0","5","5","5","0","5","5","5","4","4","3","0","0","0","3","3","0","5","2","2","4","4","4","1","6","6","6","6","4","4","6","6","0","4","2","2","4","3","3","agree","475.09999999403954","","","","","","","","<div style=""font-size:60px;"">?</div>","65","40","1","0.8"
"image-keyboard-response","114","436673","0.0-11.0-0.40","vbof7925wnw8b3s","1","611dbeedf19e4698d963ff1f","20","02/2001","single","english ","Cantonese, Vietnamese","Female","Asian","No","High School","Yes, Undergraduate studies","n/a","n/a","n/a","6","1","2","0","3","0.49999997999999996","stim/N000.jpg","65","65","0.366666672","3","0","4","","4","2","3","1","0","4","4","4","0","1","0","0","5","5","2","5","6","1","4","0","0","5","0","5","5","5","0","5","5","5","4","4","3","0","0","0","3","3","0","5","2","2","4","4","4","1","6","6","6","6","4","4","6","6","0","4","2","2","4","3","3","agree","null","","","","","","","","stim/T080.jpg","null","","",""
"html-keyboard-response","115","436736","0.0-11.0-1.40","vbof7925wnw8b3s","1","611dbeedf19e4698d963ff1f","20","02/2001","single","english ","Cantonese, Vietnamese","Female","Asian","No","High School","Yes, Undergraduate studies","n/a","n/a","n/a","6","1","2","0","3","0.49999997999999996","stim/N000.jpg","65","65","0.366666672","3","0","4","","4","2","3","1","0","4","4","4","0","1","0","0","5","5","2","5","6","1","4","0","0","5","0","5","5","5","0","5","5","5","4","4","3","0","0","0","3","3","0","5","2","2","4","4","4","1","6","6","6","6","4","4","6","6","0","4","2","2","4","3","3","agree","61.70000000298023","","","","","","","","<div style=""font-size:60px;"">?</div>","76","41","1","0.8"
"image-keyboard-response","116","437761","0.0-11.0-0.41","vbof7925wnw8b3s","1","611dbeedf19e4698d963ff1f","20","02/2001","single","english ","Cantonese, Vietnamese","Female","Asian","No","High School","Yes, Undergraduate studies","n/a","n/a","n/a","6","1","2","0","3","0.49999997999999996","stim/N000.jpg","65","65","0.366666672","3","0","4","","4","2","3","1","0","4","4","4","0","1","0","0","5","5","2","5","6","1","4","0","0","5","0","5","5","5","0","5","5","5","4","4","3","0","0","0","3","3","0","5","2","2","4","4","4","1","6","6","6","6","4","4","6","6","0","4","2","2","4","3","3","agree","null","","","","","","","","stim/H100.jpg","null","","",""
"html-keyboard-response","117","437806","0.0-11.0-1.41","vbof7925wnw8b3s","1","611dbeedf19e4698d963ff1f","20","02/2001","single","english ","Cantonese, Vietnamese","Female","Asian","No","High School","Yes, Undergraduate studies","n/a","n/a","n/a","6","1","2","0","3","0.49999997999999996","stim/N000.jpg","65","65","0.366666672","3","0","4","","4","2","3","1","0","4","4","4","0","1","0","0","5","5","2","5","6","1","4","0","0","5","0","5","5","5","0","5","5","5","4","4","3","0","0","0","3","3","0","5","2","2","4","4","4","1","6","6","6","6","4","4","6","6","0","4","2","2","4","3","3","agree","44.5","","","","","","","","<div style=""font-size:60px;"">?</div>","65","42","1","0.8"
"image-keyboard-response","118","438828","0.0-11.0-0.42","vbof7925wnw8b3s","1","611dbeedf19e4698d963ff1f","20","02/2001","single","english ","Cantonese, Vietnamese","Female","Asian","No","High School","Yes, Undergraduate studies","n/a","n/a","n/a","6","1","2","0","3","0.49999997999999996","stim/N000.jpg","65","65","0.366666672","3","0","4","","4","2","3","1","0","4","4","4","0","1","0","0","5","5","2","5","6","1","4","0","0","5","0","5","5","5","0","5","5","5","4","4","3","0","0","0","3","3","0","5","2","2","4","4","4","1","6","6","6","6","4","4","6","6","0","4","2","2","4","3","3","agree","null","","","","","","","","stim/H060.jpg","null","","",""
"html-keyboard-response","119","438986","0.0-11.0-1.42","vbof7925wnw8b3s","1","611dbeedf19e4698d963ff1f","20","02/2001","single","english ","Cantonese, Vietnamese","Female","Asian","No","High School","Yes, Undergraduate studies","n/a","n/a","n/a","6","1","2","0","3","0.49999997999999996","stim/N000.jpg","65","65","0.366666672","3","0","4","","4","2","3","1","0","4","4","4","0","1","0","0","5","5","2","5","6","1","4","0","0","5","0","5","5","5","0","5","5","5","4","4","3","0","0","0","3","3","0","5","2","2","4","4","4","1","6","6","6","6","4","4","6","6","0","4","2","2","4","3","3","agree","156.79999999701977","","","","","","","","<div style=""font-size:60px;"">?</div>","65","43","1","0.8"
"image-keyboard-response","120","440004","0.0-11.0-0.43","vbof7925wnw8b3s","1","611dbeedf19e4698d963ff1f","20","02/2001","single","english ","Cantonese, Vietnamese","Female","Asian","No","High School","Yes, Undergraduate studies","n/a","n/a","n/a","6","1","2","0","3","0.49999997999999996","stim/N000.jpg","65","65","0.366666672","3","0","4","","4","2","3","1","0","4","4","4","0","1","0","0","5","5","2","5","6","1","4","0","0","5","0","5","5","5","0","5","5","5","4","4","3","0","0","0","3","3","0","5","2","2","4","4","4","1","6","6","6","6","4","4","6","6","0","4","2","2","4","3","3","agree","null","","","","","","","","stim/H080.jpg","null","","",""
"html-keyboard-response","121","440013","0.0-11.0-1.43","vbof7925wnw8b3s","1","611dbeedf19e4698d963ff1f","20","02/2001","single","english ","Cantonese, Vietnamese","Female","Asian","No","High School","Yes, Undergraduate studies","n/a","n/a","n/a","6","1","2","0","3","0.49999997999999996","stim/N000.jpg","65","65","0.366666672","3","0","4","","4","2","3","1","0","4","4","4","0","1","0","0","5","5","2","5","6","1","4","0","0","5","0","5","5","5","0","5","5","5","4","4","3","0","0","0","3","3","0","5","2","2","4","4","4","1","6","6","6","6","4","4","6","6","0","4","2","2","4","3","3","agree","7","","","","","","","","<div style=""font-size:60px;"">?</div>","65","44","1","0.8"
"image-keyboard-response","122","441026","0.0-11.0-0.44","vbof7925wnw8b3s","1","611dbeedf19e4698d963ff1f","20","02/2001","single","english ","Cantonese, Vietnamese","Female","Asian","No","High School","Yes, Undergraduate studies","n/a","n/a","n/a","6","1","2","0","3","0.49999997999999996","stim/N000.jpg","65","65","0.366666672","3","0","4","","4","2","3","1","0","4","4","4","0","1","0","0","5","5","2","5","6","1","4","0","0","5","0","5","5","5","0","5","5","5","4","4","3","0","0","0","3","3","0","5","2","2","4","4","4","1","6","6","6","6","4","4","6","6","0","4","2","2","4","3","3","agree","null","","","","","","","","stim/H280.jpg","null","","",""
"html-keyboard-response","123","441367","0.0-11.0-1.44","vbof7925wnw8b3s","1","611dbeedf19e4698d963ff1f","20","02/2001","single","english ","Cantonese, Vietnamese","Female","Asian","No","High School","Yes, Undergraduate studies","n/a","n/a","n/a","6","1","2","0","3","0.49999997999999996","stim/N000.jpg","65","65","0.366666672","3","0","4","","4","2","3","1","0","4","4","4","0","1","0","0","5","5","2","5","6","1","4","0","0","5","0","5","5","5","0","5","5","5","4","4","3","0","0","0","3","3","0","5","2","2","4","4","4","1","6","6","6","6","4","4","6","6","0","4","2","2","4","3","3","agree","340.09999999403954","","","","","","","","<div style=""font-size:60px;"">?</div>","65","45","1","0.8"
"image-keyboard-response","124","442380","0.0-11.0-0.45","vbof7925wnw8b3s","1","611dbeedf19e4698d963ff1f","20","02/2001","single","english ","Cantonese, Vietnamese","Female","Asian","No","High School","Yes, Undergraduate studies","n/a","n/a","n/a","6","1","2","0","3","0.49999997999999996","stim/N000.jpg","65","65","0.366666672","3","0","4","","4","2","3","1","0","4","4","4","0","1","0","0","5","5","2","5","6","1","4","0","0","5","0","5","5","5","0","5","5","5","4","4","3","0","0","0","3","3","0","5","2","2","4","4","4","1","6","6","6","6","4","4","6","6","0","4","2","2","4","3","3","agree","null","","","","","","","","stim/H100.jpg","null","","",""
"html-keyboard-response","125","442391","0.0-11.0-1.45","vbof7925wnw8b3s","1","611dbeedf19e4698d963ff1f","20","02/2001","single","english ","Cantonese, Vietnamese","Female","Asian","No","High School","Yes, Undergraduate studies","n/a","n/a","n/a","6","1","2","0","3","0.49999997999999996","stim/N000.jpg","65","65","0.366666672","3","0","4","","4","2","3","1","0","4","4","4","0","1","0","0","5","5","2","5","6","1","4","0","0","5","0","5","5","5","0","5","5","5","4","4","3","0","0","0","3","3","0","5","2","2","4","4","4","1","6","6","6","6","4","4","6","6","0","4","2","2","4","3","3","agree","9.900000005960464","","","","","","","","<div style=""font-size:60px;"">?</div>","65","46","1","0.8"
"image-keyboard-response","126","443403","0.0-11.0-0.46","vbof7925wnw8b3s","1","611dbeedf19e4698d963ff1f","20","02/2001","single","english ","Cantonese, Vietnamese","Female","Asian","No","High School","Yes, Undergraduate studies","n/a","n/a","n/a","6","1","2","0","3","0.49999997999999996","stim/N000.jpg","65","65","0.366666672","3","0","4","","4","2","3","1","0","4","4","4","0","1","0","0","5","5","2","5","6","1","4","0","0","5","0","5","5","5","0","5","5","5","4","4","3","0","0","0","3","3","0","5","2","2","4","4","4","1","6","6","6","6","4","4","6","6","0","4","2","2","4","3","3","agree","null","","","","","","","","stim/H110.jpg","null","","",""
"html-keyboard-response","127","443492","0.0-11.0-1.46","vbof7925wnw8b3s","1","611dbeedf19e4698d963ff1f","20","02/2001","single","english ","Cantonese, Vietnamese","Female","Asian","No","High School","Yes, Undergraduate studies","n/a","n/a","n/a","6","1","2","0","3","0.49999997999999996","stim/N000.jpg","65","65","0.366666672","3","0","4","","4","2","3","1","0","4","4","4","0","1","0","0","5","5","2","5","6","1","4","0","0","5","0","5","5","5","0","5","5","5","4","4","3","0","0","0","3","3","0","5","2","2","4","4","4","1","6","6","6","6","4","4","6","6","0","4","2","2","4","3","3","agree","87.5","","","","","","","","<div style=""font-size:60px;"">?</div>","65","47","1","0.8"
"image-keyboard-response","128","444511","0.0-11.0-0.47","vbof7925wnw8b3s","1","611dbeedf19e4698d963ff1f","20","02/2001","single","english ","Cantonese, Vietnamese","Female","Asian","No","High School","Yes, Undergraduate studies","n/a","n/a","n/a","6","1","2","0","3","0.49999997999999996","stim/N000.jpg","65","65","0.366666672","3","0","4","","4","2","3","1","0","4","4","4","0","1","0","0","5","5","2","5","6","1","4","0","0","5","0","5","5","5","0","5","5","5","4","4","3","0","0","0","3","3","0","5","2","2","4","4","4","1","6","6","6","6","4","4","6","6","0","4","2","2","4","3","3","agree","null","","","","","","","","stim/H270.jpg","null","","",""
"html-keyboard-response","129","445823","0.0-11.0-1.47","vbof7925wnw8b3s","1","611dbeedf19e4698d963ff1f","20","02/2001","single","english ","Cantonese, Vietnamese","Female","Asian","No","High School","Yes, Undergraduate studies","n/a","n/a","n/a","6","1","2","0","3","0.49999997999999996","stim/N000.jpg","65","65","0.366666672","3","0","4","","4","2","3","1","0","4","4","4","0","1","0","0","5","5","2","5","6","1","4","0","0","5","0","5","5","5","0","5","5","5","4","4","3","0","0","0","3","3","0","5","2","2","4","4","4","1","6","6","6","6","4","4","6","6","0","4","2","2","4","3","3","agree","1310.5","","","","","","","","<div style=""font-size:60px;"">?</div>","65","48","1","0.8"
"image-keyboard-response","130","446831","0.0-11.0-0.48","vbof7925wnw8b3s","1","611dbeedf19e4698d963ff1f","20","02/2001","single","english ","Cantonese, Vietnamese","Female","Asian","No","High School","Yes, Undergraduate studies","n/a","n/a","n/a","6","1","2","0","3","0.49999997999999996","stim/N000.jpg","65","65","0.366666672","3","0","4","","4","2","3","1","0","4","4","4","0","1","0","0","5","5","2","5","6","1","4","0","0","5","0","5","5","5","0","5","5","5","4","4","3","0","0","0","3","3","0","5","2","2","4","4","4","1","6","6","6","6","4","4","6","6","0","4","2","2","4","3","3","agree","null","","","","","","","","stim/H040.jpg","null","","",""
"html-keyboard-response","131","447179","0.0-11.0-1.48","vbof7925wnw8b3s","1","611dbeedf19e4698d963ff1f","20","02/2001","single","english ","Cantonese, Vietnamese","Female","Asian","No","High School","Yes, Undergraduate studies","n/a","n/a","n/a","6","1","2","0","3","0.49999997999999996","stim/N000.jpg","65","65","0.366666672","3","0","4","","4","2","3","1","0","4","4","4","0","1","0","0","5","5","2","5","6","1","4","0","0","5","0","5","5","5","0","5","5","5","4","4","3","0","0","0","3","3","0","5","2","2","4","4","4","1","6","6","6","6","4","4","6","6","0","4","2","2","4","3","3","agree","346.20000000298023","","","","","","","","<div style=""font-size:60px;"">?</div>","65","49","1","0.8"
"image-keyboard-response","132","448196","0.0-11.0-0.49","vbof7925wnw8b3s","1","611dbeedf19e4698d963ff1f","20","02/2001","single","english ","Cantonese, Vietnamese","Female","Asian","No","High School","Yes, Undergraduate studies","n/a","n/a","n/a","6","1","2","0","3","0.49999997999999996","stim/N000.jpg","65","65","0.366666672","3","0","4","","4","2","3","1","0","4","4","4","0","1","0","0","5","5","2","5","6","1","4","0","0","5","0","5","5","5","0","5","5","5","4","4","3","0","0","0","3","3","0","5","2","2","4","4","4","1","6","6","6","6","4","4","6","6","0","4","2","2","4","3","3","agree","null","","","","","","","","stim/H150.jpg","null","","",""
"html-keyboard-response","133","448597","0.0-11.0-1.49","vbof7925wnw8b3s","1","611dbeedf19e4698d963ff1f","20","02/2001","single","english ","Cantonese, Vietnamese","Female","Asian","No","High School","Yes, Undergraduate studies","n/a","n/a","n/a","6","1","2","0","3","0.49999997999999996","stim/N000.jpg","65","65","0.366666672","3","0","4","","4","2","3","1","0","4","4","4","0","1","0","0","5","5","2","5","6","1","4","0","0","5","0","5","5","5","0","5","5","5","4","4","3","0","0","0","3","3","0","5","2","2","4","4","4","1","6","6","6","6","4","4","6","6","0","4","2","2","4","3","3","agree","399.90000000596046","","","","","","","","<div style=""font-size:60px;"">?</div>","65","50","1","0.8"
"html-keyboard-response","134","450348","0.0-12.0","vbof7925wnw8b3s","1","611dbeedf19e4698d963ff1f","20","02/2001","single","english ","Cantonese, Vietnamese","Female","Asian","No","High School","Yes, Undergraduate studies","n/a","n/a","n/a","6","1","2","0","3","0.49999997999999996","stim/N000.jpg","65","65","0.366666672","3","0","4","","4","2","3","1","0","4","4","4","0","1","0","0","5","5","2","5","6","1","4","0","0","5","0","5","5","5","0","5","5","5","4","4","3","0","0","0","3","3","0","5","2","2","4","4","4","1","6","6","6","6","4","4","6","6","0","4","2","2","4","3","3","agree","1245.7999999970198","","","","","","","","<p>Block 2</p><p>Press SPACE to continue.</p>","32","","",""
"image-keyboard-response","135","451856","0.0-13.0-0.0","vbof7925wnw8b3s","1","611dbeedf19e4698d963ff1f","20","02/2001","single","english ","Cantonese, Vietnamese","Female","Asian","No","High School","Yes, Undergraduate studies","n/a","n/a","n/a","6","1","2","0","3","0.49999997999999996","stim/N000.jpg","65","65","0.366666672","3","0","4","","4","2","3","1","0","4","4","4","0","1","0","0","5","5","2","5","6","1","4","0","0","5","0","5","5","5","0","5","5","5","4","4","3","0","0","0","3","3","0","5","2","2","4","4","4","1","6","6","6","6","4","4","6","6","0","4","2","2","4","3","3","agree","null","","","","","","","","stim/H170.jpg","null","","",""
"html-keyboard-response","136","452171","0.0-13.0-1.0","vbof7925wnw8b3s","1","611dbeedf19e4698d963ff1f","20","02/2001","single","english ","Cantonese, Vietnamese","Female","Asian","No","High School","Yes, Undergraduate studies","n/a","n/a","n/a","6","1","2","0","3","0.49999997999999996","stim/N000.jpg","65","65","0.366666672","3","0","4","","4","2","3","1","0","4","4","4","0","1","0","0","5","5","2","5","6","1","4","0","0","5","0","5","5","5","0","5","5","5","4","4","3","0","0","0","3","3","0","5","2","2","4","4","4","1","6","6","6","6","4","4","6","6","0","4","2","2","4","3","3","agree","313.79999999701977","","","","","","","","<div style=""font-size:60px;"">?</div>","65","1","2","0.8"
"image-keyboard-response","137","453182","0.0-13.0-0.1","vbof7925wnw8b3s","1","611dbeedf19e4698d963ff1f","20","02/2001","single","english ","Cantonese, Vietnamese","Female","Asian","No","High School","Yes, Undergraduate studies","n/a","n/a","n/a","6","1","2","0","3","0.49999997999999996","stim/N000.jpg","65","65","0.366666672","3","0","4","","4","2","3","1","0","4","4","4","0","1","0","0","5","5","2","5","6","1","4","0","0","5","0","5","5","5","0","5","5","5","4","4","3","0","0","0","3","3","0","5","2","2","4","4","4","1","6","6","6","6","4","4","6","6","0","4","2","2","4","3","3","agree","null","","","","","","","","stim/H300.jpg","null","","",""
"html-keyboard-response","138","453551","0.0-13.0-1.1","vbof7925wnw8b3s","1","611dbeedf19e4698d963ff1f","20","02/2001","single","english ","Cantonese, Vietnamese","Female","Asian","No","High School","Yes, Undergraduate studies","n/a","n/a","n/a","6","1","2","0","3","0.49999997999999996","stim/N000.jpg","65","65","0.366666672","3","0","4","","4","2","3","1","0","4","4","4","0","1","0","0","5","5","2","5","6","1","4","0","0","5","0","5","5","5","0","5","5","5","4","4","3","0","0","0","3","3","0","5","2","2","4","4","4","1","6","6","6","6","4","4","6","6","0","4","2","2","4","3","3","agree","365.29999999701977","","","","","","","","<div style=""font-size:60px;"">?</div>","65","2","2","0.8"
"image-keyboard-response","139","454575","0.0-13.0-0.2","vbof7925wnw8b3s","1","611dbeedf19e4698d963ff1f","20","02/2001","single","english ","Cantonese, Vietnamese","Female","Asian","No","High School","Yes, Undergraduate studies","n/a","n/a","n/a","6","1","2","0","3","0.49999997999999996","stim/N000.jpg","65","65","0.366666672","3","0","4","","4","2","3","1","0","4","4","4","0","1","0","0","5","5","2","5","6","1","4","0","0","5","0","5","5","5","0","5","5","5","4","4","3","0","0","0","3","3","0","5","2","2","4","4","4","1","6","6","6","6","4","4","6","6","0","4","2","2","4","3","3","agree","null","","","","","","","","stim/H210.jpg","null","","",""
"html-keyboard-response","140","454927","0.0-13.0-1.2","vbof7925wnw8b3s","1","611dbeedf19e4698d963ff1f","20","02/2001","single","english ","Cantonese, Vietnamese","Female","Asian","No","High School","Yes, Undergraduate studies","n/a","n/a","n/a","6","1","2","0","3","0.49999997999999996","stim/N000.jpg","65","65","0.366666672","3","0","4","","4","2","3","1","0","4","4","4","0","1","0","0","5","5","2","5","6","1","4","0","0","5","0","5","5","5","0","5","5","5","4","4","3","0","0","0","3","3","0","5","2","2","4","4","4","1","6","6","6","6","4","4","6","6","0","4","2","2","4","3","3","agree","349.70000000298023","","","","","","","","<div style=""font-size:60px;"">?</div>","65","3","2","0.8"
"image-keyboard-response","141","455951","0.0-13.0-0.3","vbof7925wnw8b3s","1","611dbeedf19e4698d963ff1f","20","02/2001","single","english ","Cantonese, Vietnamese","Female","Asian","No","High School","Yes, Undergraduate studies","n/a","n/a","n/a","6","1","2","0","3","0.49999997999999996","stim/N000.jpg","65","65","0.366666672","3","0","4","","4","2","3","1","0","4","4","4","0","1","0","0","5","5","2","5","6","1","4","0","0","5","0","5","5","5","0","5","5","5","4","4","3","0","0","0","3","3","0","5","2","2","4","4","4","1","6","6","6","6","4","4","6","6","0","4","2","2","4","3","3","agree","null","","","","","","","","stim/H140.jpg","null","","",""
"html-keyboard-response","142","456217","0.0-13.0-1.3","vbof7925wnw8b3s","1","611dbeedf19e4698d963ff1f","20","02/2001","single","english ","Cantonese, Vietnamese","Female","Asian","No","High School","Yes, Undergraduate studies","n/a","n/a","n/a","6","1","2","0","3","0.49999997999999996","stim/N000.jpg","65","65","0.366666672","3","0","4","","4","2","3","1","0","4","4","4","0","1","0","0","5","5","2","5","6","1","4","0","0","5","0","5","5","5","0","5","5","5","4","4","3","0","0","0","3","3","0","5","2","2","4","4","4","1","6","6","6","6","4","4","6","6","0","4","2","2","4","3","3","agree","264.29999999701977","","","","","","","","<div style=""font-size:60px;"">?</div>","65","4","2","0.8"
"image-keyboard-response","143","457238","0.0-13.0-0.4","vbof7925wnw8b3s","1","611dbeedf19e4698d963ff1f","20","02/2001","single","english ","Cantonese, Vietnamese","Female","Asian","No","High School","Yes, Undergraduate studies","n/a","n/a","n/a","6","1","2","0","3","0.49999997999999996","stim/N000.jpg","65","65","0.366666672","3","0","4","","4","2","3","1","0","4","4","4","0","1","0","0","5","5","2","5","6","1","4","0","0","5","0","5","5","5","0","5","5","5","4","4","3","0","0","0","3","3","0","5","2","2","4","4","4","1","6","6","6","6","4","4","6","6","0","4","2","2","4","3","3","agree","null","","","","","","","","stim/H260.jpg","null","","",""
