"trial_type","trial_index","time_elapsed","internal_node_id","subject","condition","ID","age","dob","marital","natlang","olang","gender","ethnicity","mental_check","educ_l","educ_c","mental","mentdrug","mentpos","sesparent","sesstudent","sesladder","educ_hs","educ_ce","s1self","chosenbody","s1selfjudge","s2selfjudge","s2self","sspc_01","sspc_02","pas_01","pas_02","pas_03","pas_04","pas_05","pas_06","pas_07","pas_08","pas_09","pas_10","pas_11","pas_12","pas_13","pas_14","contact_01","contact_02","contact_03","contact_04","contact_05","contact_06","contact_07","contact_08","contact_09","idnd_01","idnd_02","idnd_03","idnd_04","idnd_05","idnd_06","idnd_07","idnd_08","catch_01","adig_01","adig_02","adig_03","plcs_01","plcs_02","plcs_03","plcs_04","plcs_05","plcs_06","plcs_07","plcs_08","plcs_09","plcs_10","plcs_11","plcs_12","catch_02","wwwp_01","wwwp_02","wwwp_03","wwwp_04","wwwp_05","wwwp_06","wwwp_07","wwwp_08","wwwp_09","lsns_fam_1","lsns_fam_2","lsns_fam_3","lsns_fri_1","lsns_fri_2","lsns_fri_3","debrief","rt","url","success","view_history","responses","question_order","final_value","start_value","stimulus","key_press","trial","block","freq"
"pavlovia","0","3","0.0-0.0","ugc9c62u9a51edd","1","601c0f63889d5f67eb49e823","26","04/1995","Single","Cantonese","English","Female","Asian","No","Undergraduate degree","No, currently not in school","N/A","N/A","N/A","7","9","6","1","0","0.5","stim/N000.jpg","65","76","0.516666666","3","2","4","","3","2","3","0","1","3","3","3","0","1","0","3","4","5","0","6","6","0","4","2","3","6","0","5","6","6","0","6","5","5","1","1","2","0","0","3","3","2","4","4","2","2","3","3","3","1","4","4","4","0","0","1","4","1","0","3","3","2","4","3","3","agree","","","","","","","","","","","","",""
"external-html","1","6168","0.0-1.0","ugc9c62u9a51edd","1","601c0f63889d5f67eb49e823","26","04/1995","Single","Cantonese","English","Female","Asian","No","Undergraduate degree","No, currently not in school","N/A","N/A","N/A","7","9","6","1","0","0.5","stim/N000.jpg","65","76","0.516666666","3","2","4","","3","2","3","0","1","3","3","3","0","1","0","3","4","5","0","6","6","0","4","2","3","6","0","5","6","6","0","6","5","5","1","1","2","0","0","3","3","2","4","4","2","2","3","3","3","1","4","4","4","0","0","1","4","1","0","3","3","2","4","3","3","agree","5916.699999988079","sub/html/consent.html","","","","","","","","","","",""
"fullscreen","2","11233","0.0-2.0","ugc9c62u9a51edd","1","601c0f63889d5f67eb49e823","26","04/1995","Single","Cantonese","English","Female","Asian","No","Undergraduate degree","No, currently not in school","N/A","N/A","N/A","7","9","6","1","0","0.5","stim/N000.jpg","65","76","0.516666666","3","2","4","","3","2","3","0","1","3","3","3","0","1","0","3","4","5","0","6","6","0","4","2","3","6","0","5","6","6","0","6","5","5","1","1","2","0","0","3","3","2","4","4","2","2","3","3","3","1","4","4","4","0","0","1","4","1","0","3","3","2","4","3","3","agree","","","true","","","","","","","","","",""
"instructions","3","19305","0.0-3.0","ugc9c62u9a51edd","1","601c0f63889d5f67eb49e823","26","04/1995","Single","Cantonese","English","Female","Asian","No","Undergraduate degree","No, currently not in school","N/A","N/A","N/A","7","9","6","1","0","0.5","stim/N000.jpg","65","76","0.516666666","3","2","4","","3","2","3","0","1","3","3","3","0","1","0","3","4","5","0","6","6","0","4","2","3","6","0","5","6","6","0","6","5","5","1","1","2","0","0","3","3","2","4","4","2","2","3","3","3","1","4","4","4","0","0","1","4","1","0","3","3","2","4","3","3","agree","8071.299999982119","","","[{""page_index"":0,""viewing_time"":3062.7999999821186},{""page_index"":1,""viewing_time"":5008}]","","","","","","","","",""
"survey-text","4","59938","0.0-4.0-0.0","ugc9c62u9a51edd","1","601c0f63889d5f67eb49e823","26","04/1995","Single","Cantonese","English","Female","Asian","No","Undergraduate degree","No, currently not in school","N/A","N/A","N/A","7","9","6","1","0","0.5","stim/N000.jpg","65","76","0.516666666","3","2","4","","3","2","3","0","1","3","3","3","0","1","0","3","4","5","0","6","6","0","4","2","3","6","0","5","6","6","0","6","5","5","1","1","2","0","0","3","3","2","4","4","2","2","3","3","3","1","4","4","4","0","0","1","4","1","0","3","3","2","4","3","3","agree","40624.5","","","","{""ID"":""601c0f63889d5f67eb49e823"",""age"":""26"",""dob"":""04/1995"",""marital"":""Single"",""natlang"":""Cantonese"",""olang"":""English""}","","","","","","","",""
"survey-multi-choice","5","72470","0.0-4.0-1.0","ugc9c62u9a51edd","1","601c0f63889d5f67eb49e823","26","04/1995","Single","Cantonese","English","Female","Asian","No","Undergraduate degree","No, currently not in school","N/A","N/A","N/A","7","9","6","1","0","0.5","stim/N000.jpg","65","76","0.516666666","3","2","4","","3","2","3","0","1","3","3","3","0","1","0","3","4","5","0","6","6","0","4","2","3","6","0","5","6","6","0","6","5","5","1","1","2","0","0","3","3","2","4","4","2","2","3","3","3","1","4","4","4","0","0","1","4","1","0","3","3","2","4","3","3","agree","12530.200000017881","","","","{""gender"":""Female"",""ethnicity"":""Asian"",""mental_check"":""No"",""educ_l"":""Undergraduate degree"",""educ_c"":""No, currently not in school""}","[0,1,2,3,4]","","","","","","",""
"survey-text","6","83744","0.0-4.0-2.0","ugc9c62u9a51edd","1","601c0f63889d5f67eb49e823","26","04/1995","Single","Cantonese","English","Female","Asian","No","Undergraduate degree","No, currently not in school","N/A","N/A","N/A","7","9","6","1","0","0.5","stim/N000.jpg","65","76","0.516666666","3","2","4","","3","2","3","0","1","3","3","3","0","1","0","3","4","5","0","6","6","0","4","2","3","6","0","5","6","6","0","6","5","5","1","1","2","0","0","3","3","2","4","4","2","2","3","3","3","1","4","4","4","0","0","1","4","1","0","3","3","2","4","3","3","agree","11267.299999982119","","","","{""mental"":""N/A"",""mentdrug"":""N/A"",""mentpos"":""N/A""}","","","","","","","",""
"survey-likert","7","135981","0.0-4.0-3.0","ugc9c62u9a51edd","1","601c0f63889d5f67eb49e823","26","04/1995","Single","Cantonese","English","Female","Asian","No","Undergraduate degree","No, currently not in school","N/A","N/A","N/A","7","9","6","1","0","0.5","stim/N000.jpg","65","76","0.516666666","3","2","4","","3","2","3","0","1","3","3","3","0","1","0","3","4","5","0","6","6","0","4","2","3","6","0","5","6","6","0","6","5","5","1","1","2","0","0","3","3","2","4","4","2","2","3","3","3","1","4","4","4","0","0","1","4","1","0","3","3","2","4","3","3","agree","52235","","","","{""sesparent"":7,""sesstudent"":9,""sesladder"":6}","[0,1,2]","","","","","","",""
"survey-likert","8","149673","0.0-4.0-4.0","ugc9c62u9a51edd","1","601c0f63889d5f67eb49e823","26","04/1995","Single","Cantonese","English","Female","Asian","No","Undergraduate degree","No, currently not in school","N/A","N/A","N/A","7","9","6","1","0","0.5","stim/N000.jpg","65","76","0.516666666","3","2","4","","3","2","3","0","1","3","3","3","0","1","0","3","4","5","0","6","6","0","4","2","3","6","0","5","6","6","0","6","5","5","1","1","2","0","0","3","3","2","4","4","2","2","3","3","3","1","4","4","4","0","0","1","4","1","0","3","3","2","4","3","3","agree","13689.300000011921","","","","{""educ_hs"":1,""educ_ce"":4}","[0,1]","","","","","","",""
"reconstruction","9","160964","0.0-5.0","ugc9c62u9a51edd","1","601c0f63889d5f67eb49e823","26","04/1995","Single","Cantonese","English","Female","Asian","No","Undergraduate degree","No, currently not in school","N/A","N/A","N/A","7","9","6","1","0","0.5","stim/N000.jpg","65","76","0.516666666","3","2","4","","3","2","3","0","1","3","3","3","0","1","0","3","4","5","0","6","6","0","4","2","3","6","0","5","6","6","0","6","5","5","1","1","2","0","0","3","3","2","4","4","2","2","3","3","3","1","4","4","4","0","0","1","4","1","0","3","3","2","4","3","3","agree","11287.90000000596","","","","","","0.5","0.5","","","","",""
"image-keyboard-response","10","172142","0.0-6.0","ugc9c62u9a51edd","1","601c0f63889d5f67eb49e823","26","04/1995","Single","Cantonese","English","Female","Asian","No","Undergraduate degree","No, currently not in school","N/A","N/A","N/A","7","9","6","1","0","0.5","stim/N000.jpg","65","76","0.516666666","3","2","4","","3","2","3","0","1","3","3","3","0","1","0","3","4","5","0","6","6","0","4","2","3","6","0","5","6","6","0","6","5","5","1","1","2","0","0","3","3","2","4","4","2","2","3","3","3","1","4","4","4","0","0","1","4","1","0","3","3","2","4","3","3","agree","11176.300000011921","","","","","","","","stim/N000.jpg","65","","",""
"instructions","11","362687","0.0-7.0","ugc9c62u9a51edd","1","601c0f63889d5f67eb49e823","26","04/1995","Single","Cantonese","English","Female","Asian","No","Undergraduate degree","No, currently not in school","N/A","N/A","N/A","7","9","6","1","0","0.5","stim/N000.jpg","65","76","0.516666666","3","2","4","","3","2","3","0","1","3","3","3","0","1","0","3","4","5","0","6","6","0","4","2","3","6","0","5","6","6","0","6","5","5","1","1","2","0","0","3","3","2","4","4","2","2","3","3","3","1","4","4","4","0","0","1","4","1","0","3","3","2","4","3","3","agree","190545.30000001192","","","[{""page_index"":0,""viewing_time"":2651.100000023842},{""page_index"":1,""viewing_time"":153215.89999997616},{""page_index"":2,""viewing_time"":8854},{""page_index"":3,""viewing_time"":4508.100000023842},{""page_index"":4,""viewing_time"":3786.5999999940395},{""page_index"":5,""viewing_time"":12865.09999999404},{""page_index"":6,""viewing_time"":4664.199999988079}]","","","","","","","","",""
"image-keyboard-response","12","363188","0.0-8.0-0.0","ugc9c62u9a51edd","1","601c0f63889d5f67eb49e823","26","04/1995","Single","Cantonese","English","Female","Asian","No","Undergraduate degree","No, currently not in school","N/A","N/A","N/A","7","9","6","1","0","0.5","stim/N000.jpg","65","76","0.516666666","3","2","4","","3","2","3","0","1","3","3","3","0","1","0","3","4","5","0","6","6","0","4","2","3","6","0","5","6","6","0","6","5","5","1","1","2","0","0","3","3","2","4","4","2","2","3","3","3","1","4","4","4","0","0","1","4","1","0","3","3","2","4","3","3","agree","null","","","","","","","","stim/H110.jpg","null","","",""
"html-keyboard-response","13","366390","0.0-8.0-1.0","ugc9c62u9a51edd","1","601c0f63889d5f67eb49e823","26","04/1995","Single","Cantonese","English","Female","Asian","No","Undergraduate degree","No, currently not in school","N/A","N/A","N/A","7","9","6","1","0","0.5","stim/N000.jpg","65","76","0.516666666","3","2","4","","3","2","3","0","1","3","3","3","0","1","0","3","4","5","0","6","6","0","4","2","3","6","0","5","6","6","0","6","5","5","1","1","2","0","0","3","3","2","4","4","2","2","3","3","3","1","4","4","4","0","0","1","4","1","0","3","3","2","4","3","3","agree","3200.5","","","","","","","","<div style=""font-size:60px;"">?</div>","76","1","Practice","0.5"
"image-keyboard-response","14","367392","0.0-8.0-0.1","ugc9c62u9a51edd","1","601c0f63889d5f67eb49e823","26","04/1995","Single","Cantonese","English","Female","Asian","No","Undergraduate degree","No, currently not in school","N/A","N/A","N/A","7","9","6","1","0","0.5","stim/N000.jpg","65","76","0.516666666","3","2","4","","3","2","3","0","1","3","3","3","0","1","0","3","4","5","0","6","6","0","4","2","3","6","0","5","6","6","0","6","5","5","1","1","2","0","0","3","3","2","4","4","2","2","3","3","3","1","4","4","4","0","0","1","4","1","0","3","3","2","4","3","3","agree","null","","","","","","","","stim/T140.jpg","null","","",""
"html-keyboard-response","15","368101","0.0-8.0-1.1","ugc9c62u9a51edd","1","601c0f63889d5f67eb49e823","26","04/1995","Single","Cantonese","English","Female","Asian","No","Undergraduate degree","No, currently not in school","N/A","N/A","N/A","7","9","6","1","0","0.5","stim/N000.jpg","65","76","0.516666666","3","2","4","","3","2","3","0","1","3","3","3","0","1","0","3","4","5","0","6","6","0","4","2","3","6","0","5","6","6","0","6","5","5","1","1","2","0","0","3","3","2","4","4","2","2","3","3","3","1","4","4","4","0","0","1","4","1","0","3","3","2","4","3","3","agree","708.5","","","","","","","","<div style=""font-size:60px;"">?</div>","65","2","Practice","0.5"
"image-keyboard-response","16","369104","0.0-8.0-0.2","ugc9c62u9a51edd","1","601c0f63889d5f67eb49e823","26","04/1995","Single","Cantonese","English","Female","Asian","No","Undergraduate degree","No, currently not in school","N/A","N/A","N/A","7","9","6","1","0","0.5","stim/N000.jpg","65","76","0.516666666","3","2","4","","3","2","3","0","1","3","3","3","0","1","0","3","4","5","0","6","6","0","4","2","3","6","0","5","6","6","0","6","5","5","1","1","2","0","0","3","3","2","4","4","2","2","3","3","3","1","4","4","4","0","0","1","4","1","0","3","3","2","4","3","3","agree","null","","","","","","","","stim/T290.jpg","null","","",""
"html-keyboard-response","17","369648","0.0-8.0-1.2","ugc9c62u9a51edd","1","601c0f63889d5f67eb49e823","26","04/1995","Single","Cantonese","English","Female","Asian","No","Undergraduate degree","No, currently not in school","N/A","N/A","N/A","7","9","6","1","0","0.5","stim/N000.jpg","65","76","0.516666666","3","2","4","","3","2","3","0","1","3","3","3","0","1","0","3","4","5","0","6","6","0","4","2","3","6","0","5","6","6","0","6","5","5","1","1","2","0","0","3","3","2","4","4","2","2","3","3","3","1","4","4","4","0","0","1","4","1","0","3","3","2","4","3","3","agree","543.1000000238419","","","","","","","","<div style=""font-size:60px;"">?</div>","65","3","Practice","0.5"
"image-keyboard-response","18","370651","0.0-8.0-0.3","ugc9c62u9a51edd","1","601c0f63889d5f67eb49e823","26","04/1995","Single","Cantonese","English","Female","Asian","No","Undergraduate degree","No, currently not in school","N/A","N/A","N/A","7","9","6","1","0","0.5","stim/N000.jpg","65","76","0.516666666","3","2","4","","3","2","3","0","1","3","3","3","0","1","0","3","4","5","0","6","6","0","4","2","3","6","0","5","6","6","0","6","5","5","1","1","2","0","0","3","3","2","4","4","2","2","3","3","3","1","4","4","4","0","0","1","4","1","0","3","3","2","4","3","3","agree","null","","","","","","","","stim/T180.jpg","null","","",""
"html-keyboard-response","19","371414","0.0-8.0-1.3","ugc9c62u9a51edd","1","601c0f63889d5f67eb49e823","26","04/1995","Single","Cantonese","English","Female","Asian","No","Undergraduate degree","No, currently not in school","N/A","N/A","N/A","7","9","6","1","0","0.5","stim/N000.jpg","65","76","0.516666666","3","2","4","","3","2","3","0","1","3","3","3","0","1","0","3","4","5","0","6","6","0","4","2","3","6","0","5","6","6","0","6","5","5","1","1","2","0","0","3","3","2","4","4","2","2","3","3","3","1","4","4","4","0","0","1","4","1","0","3","3","2","4","3","3","agree","761.1999999880791","","","","","","","","<div style=""font-size:60px;"">?</div>","65","4","Practice","0.5"
"image-keyboard-response","20","372416","0.0-8.0-0.4","ugc9c62u9a51edd","1","601c0f63889d5f67eb49e823","26","04/1995","Single","Cantonese","English","Female","Asian","No","Undergraduate degree","No, currently not in school","N/A","N/A","N/A","7","9","6","1","0","0.5","stim/N000.jpg","65","76","0.516666666","3","2","4","","3","2","3","0","1","3","3","3","0","1","0","3","4","5","0","6","6","0","4","2","3","6","0","5","6","6","0","6","5","5","1","1","2","0","0","3","3","2","4","4","2","2","3","3","3","1","4","4","4","0","0","1","4","1","0","3","3","2","4","3","3","agree","null","","","","","","","","stim/H180.jpg","null","","",""
"html-keyboard-response","21","372980","0.0-8.0-1.4","ugc9c62u9a51edd","1","601c0f63889d5f67eb49e823","26","04/1995","Single","Cantonese","English","Female","Asian","No","Undergraduate degree","No, currently not in school","N/A","N/A","N/A","7","9","6","1","0","0.5","stim/N000.jpg","65","76","0.516666666","3","2","4","","3","2","3","0","1","3","3","3","0","1","0","3","4","5","0","6","6","0","4","2","3","6","0","5","6","6","0","6","5","5","1","1","2","0","0","3","3","2","4","4","2","2","3","3","3","1","4","4","4","0","0","1","4","1","0","3","3","2","4","3","3","agree","562.7999999821186","","","","","","","","<div style=""font-size:60px;"">?</div>","76","5","Practice","0.5"
"image-keyboard-response","22","373987","0.0-8.0-0.5","ugc9c62u9a51edd","1","601c0f63889d5f67eb49e823","26","04/1995","Single","Cantonese","English","Female","Asian","No","Undergraduate degree","No, currently not in school","N/A","N/A","N/A","7","9","6","1","0","0.5","stim/N000.jpg","65","76","0.516666666","3","2","4","","3","2","3","0","1","3","3","3","0","1","0","3","4","5","0","6","6","0","4","2","3","6","0","5","6","6","0","6","5","5","1","1","2","0","0","3","3","2","4","4","2","2","3","3","3","1","4","4","4","0","0","1","4","1","0","3","3","2","4","3","3","agree","null","","","","","","","","stim/T220.jpg","null","","",""
"html-keyboard-response","23","374576","0.0-8.0-1.5","ugc9c62u9a51edd","1","601c0f63889d5f67eb49e823","26","04/1995","Single","Cantonese","English","Female","Asian","No","Undergraduate degree","No, currently not in school","N/A","N/A","N/A","7","9","6","1","0","0.5","stim/N000.jpg","65","76","0.516666666","3","2","4","","3","2","3","0","1","3","3","3","0","1","0","3","4","5","0","6","6","0","4","2","3","6","0","5","6","6","0","6","5","5","1","1","2","0","0","3","3","2","4","4","2","2","3","3","3","1","4","4","4","0","0","1","4","1","0","3","3","2","4","3","3","agree","589.1000000238419","","","","","","","","<div style=""font-size:60px;"">?</div>","65","6","Practice","0.5"
"image-keyboard-response","24","375578","0.0-8.0-0.6","ugc9c62u9a51edd","1","601c0f63889d5f67eb49e823","26","04/1995","Single","Cantonese","English","Female","Asian","No","Undergraduate degree","No, currently not in school","N/A","N/A","N/A","7","9","6","1","0","0.5","stim/N000.jpg","65","76","0.516666666","3","2","4","","3","2","3","0","1","3","3","3","0","1","0","3","4","5","0","6","6","0","4","2","3","6","0","5","6","6","0","6","5","5","1","1","2","0","0","3","3","2","4","4","2","2","3","3","3","1","4","4","4","0","0","1","4","1","0","3","3","2","4","3","3","agree","null","","","","","","","","stim/T050.jpg","null","","",""
"html-keyboard-response","25","377247","0.0-8.0-1.6","ugc9c62u9a51edd","1","601c0f63889d5f67eb49e823","26","04/1995","Single","Cantonese","English","Female","Asian","No","Undergraduate degree","No, currently not in school","N/A","N/A","N/A","7","9","6","1","0","0.5","stim/N000.jpg","65","76","0.516666666","3","2","4","","3","2","3","0","1","3","3","3","0","1","0","3","4","5","0","6","6","0","4","2","3","6","0","5","6","6","0","6","5","5","1","1","2","0","0","3","3","2","4","4","2","2","3","3","3","1","4","4","4","0","0","1","4","1","0","3","3","2","4","3","3","agree","1669.1000000238419","","","","","","","","<div style=""font-size:60px;"">?</div>","65","7","Practice","0.5"
"image-keyboard-response","26","378251","0.0-8.0-0.7","ugc9c62u9a51edd","1","601c0f63889d5f67eb49e823","26","04/1995","Single","Cantonese","English","Female","Asian","No","Undergraduate degree","No, currently not in school","N/A","N/A","N/A","7","9","6","1","0","0.5","stim/N000.jpg","65","76","0.516666666","3","2","4","","3","2","3","0","1","3","3","3","0","1","0","3","4","5","0","6","6","0","4","2","3","6","0","5","6","6","0","6","5","5","1","1","2","0","0","3","3","2","4","4","2","2","3","3","3","1","4","4","4","0","0","1","4","1","0","3","3","2","4","3","3","agree","null","","","","","","","","stim/H030.jpg","null","","",""
"html-keyboard-response","27","378781","0.0-8.0-1.7","ugc9c62u9a51edd","1","601c0f63889d5f67eb49e823","26","04/1995","Single","Cantonese","English","Female","Asian","No","Undergraduate degree","No, currently not in school","N/A","N/A","N/A","7","9","6","1","0","0.5","stim/N000.jpg","65","76","0.516666666","3","2","4","","3","2","3","0","1","3","3","3","0","1","0","3","4","5","0","6","6","0","4","2","3","6","0","5","6","6","0","6","5","5","1","1","2","0","0","3","3","2","4","4","2","2","3","3","3","1","4","4","4","0","0","1","4","1","0","3","3","2","4","3","3","agree","529","","","","","","","","<div style=""font-size:60px;"">?</div>","76","8","Practice","0.5"
"image-keyboard-response","28","379785","0.0-8.0-0.8","ugc9c62u9a51edd","1","601c0f63889d5f67eb49e823","26","04/1995","Single","Cantonese","English","Female","Asian","No","Undergraduate degree","No, currently not in school","N/A","N/A","N/A","7","9","6","1","0","0.5","stim/N000.jpg","65","76","0.516666666","3","2","4","","3","2","3","0","1","3","3","3","0","1","0","3","4","5","0","6","6","0","4","2","3","6","0","5","6","6","0","6","5","5","1","1","2","0","0","3","3","2","4","4","2","2","3","3","3","1","4","4","4","0","0","1","4","1","0","3","3","2","4","3","3","agree","null","","","","","","","","stim/H190.jpg","null","","",""
"html-keyboard-response","29","380289","0.0-8.0-1.8","ugc9c62u9a51edd","1","601c0f63889d5f67eb49e823","26","04/1995","Single","Cantonese","English","Female","Asian","No","Undergraduate degree","No, currently not in school","N/A","N/A","N/A","7","9","6","1","0","0.5","stim/N000.jpg","65","76","0.516666666","3","2","4","","3","2","3","0","1","3","3","3","0","1","0","3","4","5","0","6","6","0","4","2","3","6","0","5","6","6","0","6","5","5","1","1","2","0","0","3","3","2","4","4","2","2","3","3","3","1","4","4","4","0","0","1","4","1","0","3","3","2","4","3","3","agree","503.5","","","","","","","","<div style=""font-size:60px;"">?</div>","76","9","Practice","0.5"
"image-keyboard-response","30","381291","0.0-8.0-0.9","ugc9c62u9a51edd","1","601c0f63889d5f67eb49e823","26","04/1995","Single","Cantonese","English","Female","Asian","No","Undergraduate degree","No, currently not in school","N/A","N/A","N/A","7","9","6","1","0","0.5","stim/N000.jpg","65","76","0.516666666","3","2","4","","3","2","3","0","1","3","3","3","0","1","0","3","4","5","0","6","6","0","4","2","3","6","0","5","6","6","0","6","5","5","1","1","2","0","0","3","3","2","4","4","2","2","3","3","3","1","4","4","4","0","0","1","4","1","0","3","3","2","4","3","3","agree","null","","","","","","","","stim/H270.jpg","null","","",""
"html-keyboard-response","31","381655","0.0-8.0-1.9","ugc9c62u9a51edd","1","601c0f63889d5f67eb49e823","26","04/1995","Single","Cantonese","English","Female","Asian","No","Undergraduate degree","No, currently not in school","N/A","N/A","N/A","7","9","6","1","0","0.5","stim/N000.jpg","65","76","0.516666666","3","2","4","","3","2","3","0","1","3","3","3","0","1","0","3","4","5","0","6","6","0","4","2","3","6","0","5","6","6","0","6","5","5","1","1","2","0","0","3","3","2","4","4","2","2","3","3","3","1","4","4","4","0","0","1","4","1","0","3","3","2","4","3","3","agree","362.80000001192093","","","","","","","","<div style=""font-size:60px;"">?</div>","76","10","Practice","0.5"
"html-keyboard-response","32","429168","0.0-9.0","ugc9c62u9a51edd","1","601c0f63889d5f67eb49e823","26","04/1995","Single","Cantonese","English","Female","Asian","No","Undergraduate degree","No, currently not in school","N/A","N/A","N/A","7","9","6","1","0","0.5","stim/N000.jpg","65","76","0.516666666","3","2","4","","3","2","3","0","1","3","3","3","0","1","0","3","4","5","0","6","6","0","4","2","3","6","0","5","6","6","0","6","5","5","1","1","2","0","0","3","3","2","4","4","2","2","3","3","3","1","4","4","4","0","0","1","4","1","0","3","3","2","4","3","3","agree","47011.69999998808","","","","","","","","<p>You have now completed the practice series.</p><p>If you have any questions, please reload this page and read the instructions again.</p><p>Otherwise, you're ready to begin the study!</p><p><strong>REMEMBER</strong>: Press <b>L </b>when you think the face is of Western origin, and <b>A </b>if not. </p><p>Press SPACE when you're ready to start!</p>","32","","",""
"html-keyboard-response","33","431234","0.0-10.0","ugc9c62u9a51edd","1","601c0f63889d5f67eb49e823","26","04/1995","Single","Cantonese","English","Female","Asian","No","Undergraduate degree","No, currently not in school","N/A","N/A","N/A","7","9","6","1","0","0.5","stim/N000.jpg","65","76","0.516666666","3","2","4","","3","2","3","0","1","3","3","3","0","1","0","3","4","5","0","6","6","0","4","2","3","6","0","5","6","6","0","6","5","5","1","1","2","0","0","3","3","2","4","4","2","2","3","3","3","1","4","4","4","0","0","1","4","1","0","3","3","2","4","3","3","agree","1563.800000011921","","","","","","","","<p>Block 1</p><p>Press SPACE to continue.</p>","32","","",""
"image-keyboard-response","34","432736","0.0-11.0-0.0","ugc9c62u9a51edd","1","601c0f63889d5f67eb49e823","26","04/1995","Single","Cantonese","English","Female","Asian","No","Undergraduate degree","No, currently not in school","N/A","N/A","N/A","7","9","6","1","0","0.5","stim/N000.jpg","65","76","0.516666666","3","2","4","","3","2","3","0","1","3","3","3","0","1","0","3","4","5","0","6","6","0","4","2","3","6","0","5","6","6","0","6","5","5","1","1","2","0","0","3","3","2","4","4","2","2","3","3","3","1","4","4","4","0","0","1","4","1","0","3","3","2","4","3","3","agree","null","","","","","","","","stim/H050.jpg","null","","",""
"html-keyboard-response","35","434127","0.0-11.0-1.0","ugc9c62u9a51edd","1","601c0f63889d5f67eb49e823","26","04/1995","Single","Cantonese","English","Female","Asian","No","Undergraduate degree","No, currently not in school","N/A","N/A","N/A","7","9","6","1","0","0.5","stim/N000.jpg","65","76","0.516666666","3","2","4","","3","2","3","0","1","3","3","3","0","1","0","3","4","5","0","6","6","0","4","2","3","6","0","5","6","6","0","6","5","5","1","1","2","0","0","3","3","2","4","4","2","2","3","3","3","1","4","4","4","0","0","1","4","1","0","3","3","2","4","3","3","agree","1389.7999999821186","","","","","","","","<div style=""font-size:60px;"">?</div>","76","1","1","0.8"
"image-keyboard-response","36","435131","0.0-11.0-0.1","ugc9c62u9a51edd","1","601c0f63889d5f67eb49e823","26","04/1995","Single","Cantonese","English","Female","Asian","No","Undergraduate degree","No, currently not in school","N/A","N/A","N/A","7","9","6","1","0","0.5","stim/N000.jpg","65","76","0.516666666","3","2","4","","3","2","3","0","1","3","3","3","0","1","0","3","4","5","0","6","6","0","4","2","3","6","0","5","6","6","0","6","5","5","1","1","2","0","0","3","3","2","4","4","2","2","3","3","3","1","4","4","4","0","0","1","4","1","0","3","3","2","4","3","3","agree","null","","","","","","","","stim/H140.jpg","null","","",""
"html-keyboard-response","37","436859","0.0-11.0-1.1","ugc9c62u9a51edd","1","601c0f63889d5f67eb49e823","26","04/1995","Single","Cantonese","English","Female","Asian","No","Undergraduate degree","No, currently not in school","N/A","N/A","N/A","7","9","6","1","0","0.5","stim/N000.jpg","65","76","0.516666666","3","2","4","","3","2","3","0","1","3","3","3","0","1","0","3","4","5","0","6","6","0","4","2","3","6","0","5","6","6","0","6","5","5","1","1","2","0","0","3","3","2","4","4","2","2","3","3","3","1","4","4","4","0","0","1","4","1","0","3","3","2","4","3","3","agree","1727.0999999940395","","","","","","","","<div style=""font-size:60px;"">?</div>","76","2","1","0.8"
"image-keyboard-response","38","437871","0.0-11.0-0.2","ugc9c62u9a51edd","1","601c0f63889d5f67eb49e823","26","04/1995","Single","Cantonese","English","Female","Asian","No","Undergraduate degree","No, currently not in school","N/A","N/A","N/A","7","9","6","1","0","0.5","stim/N000.jpg","65","76","0.516666666","3","2","4","","3","2","3","0","1","3","3","3","0","1","0","3","4","5","0","6","6","0","4","2","3","6","0","5","6","6","0","6","5","5","1","1","2","0","0","3","3","2","4","4","2","2","3","3","3","1","4","4","4","0","0","1","4","1","0","3","3","2","4","3","3","agree","null","","","","","","","","stim/T270.jpg","null","","",""
"html-keyboard-response","39","439688","0.0-11.0-1.2","ugc9c62u9a51edd","1","601c0f63889d5f67eb49e823","26","04/1995","Single","Cantonese","English","Female","Asian","No","Undergraduate degree","No, currently not in school","N/A","N/A","N/A","7","9","6","1","0","0.5","stim/N000.jpg","65","76","0.516666666","3","2","4","","3","2","3","0","1","3","3","3","0","1","0","3","4","5","0","6","6","0","4","2","3","6","0","5","6","6","0","6","5","5","1","1","2","0","0","3","3","2","4","4","2","2","3","3","3","1","4","4","4","0","0","1","4","1","0","3","3","2","4","3","3","agree","1816.5","","","","","","","","<div style=""font-size:60px;"">?</div>","65","3","1","0.8"
"image-keyboard-response","40","440692","0.0-11.0-0.3","ugc9c62u9a51edd","1","601c0f63889d5f67eb49e823","26","04/1995","Single","Cantonese","English","Female","Asian","No","Undergraduate degree","No, currently not in school","N/A","N/A","N/A","7","9","6","1","0","0.5","stim/N000.jpg","65","76","0.516666666","3","2","4","","3","2","3","0","1","3","3","3","0","1","0","3","4","5","0","6","6","0","4","2","3","6","0","5","6","6","0","6","5","5","1","1","2","0","0","3","3","2","4","4","2","2","3","3","3","1","4","4","4","0","0","1","4","1","0","3","3","2","4","3","3","agree","null","","","","","","","","stim/H290.jpg","null","","",""
"html-keyboard-response","41","441130","0.0-11.0-1.3","ugc9c62u9a51edd","1","601c0f63889d5f67eb49e823","26","04/1995","Single","Cantonese","English","Female","Asian","No","Undergraduate degree","No, currently not in school","N/A","N/A","N/A","7","9","6","1","0","0.5","stim/N000.jpg","65","76","0.516666666","3","2","4","","3","2","3","0","1","3","3","3","0","1","0","3","4","5","0","6","6","0","4","2","3","6","0","5","6","6","0","6","5","5","1","1","2","0","0","3","3","2","4","4","2","2","3","3","3","1","4","4","4","0","0","1","4","1","0","3","3","2","4","3","3","agree","436.60000002384186","","","","","","","","<div style=""font-size:60px;"">?</div>","76","4","1","0.8"
"image-keyboard-response","42","442132","0.0-11.0-0.4","ugc9c62u9a51edd","1","601c0f63889d5f67eb49e823","26","04/1995","Single","Cantonese","English","Female","Asian","No","Undergraduate degree","No, currently not in school","N/A","N/A","N/A","7","9","6","1","0","0.5","stim/N000.jpg","65","76","0.516666666","3","2","4","","3","2","3","0","1","3","3","3","0","1","0","3","4","5","0","6","6","0","4","2","3","6","0","5","6","6","0","6","5","5","1","1","2","0","0","3","3","2","4","4","2","2","3","3","3","1","4","4","4","0","0","1","4","1","0","3","3","2","4","3","3","agree","null","","","","","","","","stim/H250.jpg","null","","",""
"html-keyboard-response","43","442142","0.0-11.0-1.4","ugc9c62u9a51edd","1","601c0f63889d5f67eb49e823","26","04/1995","Single","Cantonese","English","Female","Asian","No","Undergraduate degree","No, currently not in school","N/A","N/A","N/A","7","9","6","1","0","0.5","stim/N000.jpg","65","76","0.516666666","3","2","4","","3","2","3","0","1","3","3","3","0","1","0","3","4","5","0","6","6","0","4","2","3","6","0","5","6","6","0","6","5","5","1","1","2","0","0","3","3","2","4","4","2","2","3","3","3","1","4","4","4","0","0","1","4","1","0","3","3","2","4","3","3","agree","9.5","","","","","","","","<div style=""font-size:60px;"">?</div>","76","5","1","0.8"
"image-keyboard-response","44","443144","0.0-11.0-0.5","ugc9c62u9a51edd","1","601c0f63889d5f67eb49e823","26","04/1995","Single","Cantonese","English","Female","Asian","No","Undergraduate degree","No, currently not in school","N/A","N/A","N/A","7","9","6","1","0","0.5","stim/N000.jpg","65","76","0.516666666","3","2","4","","3","2","3","0","1","3","3","3","0","1","0","3","4","5","0","6","6","0","4","2","3","6","0","5","6","6","0","6","5","5","1","1","2","0","0","3","3","2","4","4","2","2","3","3","3","1","4","4","4","0","0","1","4","1","0","3","3","2","4","3","3","agree","null","","","","","","","","stim/H060.jpg","null","","",""
"html-keyboard-response","45","443564","0.0-11.0-1.5","ugc9c62u9a51edd","1","601c0f63889d5f67eb49e823","26","04/1995","Single","Cantonese","English","Female","Asian","No","Undergraduate degree","No, currently not in school","N/A","N/A","N/A","7","9","6","1","0","0.5","stim/N000.jpg","65","76","0.516666666","3","2","4","","3","2","3","0","1","3","3","3","0","1","0","3","4","5","0","6","6","0","4","2","3","6","0","5","6","6","0","6","5","5","1","1","2","0","0","3","3","2","4","4","2","2","3","3","3","1","4","4","4","0","0","1","4","1","0","3","3","2","4","3","3","agree","419.09999999403954","","","","","","","","<div style=""font-size:60px;"">?</div>","65","6","1","0.8"
"image-keyboard-response","46","444566","0.0-11.0-0.6","ugc9c62u9a51edd","1","601c0f63889d5f67eb49e823","26","04/1995","Single","Cantonese","English","Female","Asian","No","Undergraduate degree","No, currently not in school","N/A","N/A","N/A","7","9","6","1","0","0.5","stim/N000.jpg","65","76","0.516666666","3","2","4","","3","2","3","0","1","3","3","3","0","1","0","3","4","5","0","6","6","0","4","2","3","6","0","5","6","6","0","6","5","5","1","1","2","0","0","3","3","2","4","4","2","2","3","3","3","1","4","4","4","0","0","1","4","1","0","3","3","2","4","3","3","agree","null","","","","","","","","stim/T030.jpg","null","","",""
"html-keyboard-response","47","444816","0.0-11.0-1.6","ugc9c62u9a51edd","1","601c0f63889d5f67eb49e823","26","04/1995","Single","Cantonese","English","Female","Asian","No","Undergraduate degree","No, currently not in school","N/A","N/A","N/A","7","9","6","1","0","0.5","stim/N000.jpg","65","76","0.516666666","3","2","4","","3","2","3","0","1","3","3","3","0","1","0","3","4","5","0","6","6","0","4","2","3","6","0","5","6","6","0","6","5","5","1","1","2","0","0","3","3","2","4","4","2","2","3","3","3","1","4","4","4","0","0","1","4","1","0","3","3","2","4","3","3","agree","249.09999999403954","","","","","","","","<div style=""font-size:60px;"">?</div>","65","7","1","0.8"
"image-keyboard-response","48","445819","0.0-11.0-0.7","ugc9c62u9a51edd","1","601c0f63889d5f67eb49e823","26","04/1995","Single","Cantonese","English","Female","Asian","No","Undergraduate degree","No, currently not in school","N/A","N/A","N/A","7","9","6","1","0","0.5","stim/N000.jpg","65","76","0.516666666","3","2","4","","3","2","3","0","1","3","3","3","0","1","0","3","4","5","0","6","6","0","4","2","3","6","0","5","6","6","0","6","5","5","1","1","2","0","0","3","3","2","4","4","2","2","3","3","3","1","4","4","4","0","0","1","4","1","0","3","3","2","4","3","3","agree","null","","","","","","","","stim/T260.jpg","null","","",""
"html-keyboard-response","49","446156","0.0-11.0-1.7","ugc9c62u9a51edd","1","601c0f63889d5f67eb49e823","26","04/1995","Single","Cantonese","English","Female","Asian","No","Undergraduate degree","No, currently not in school","N/A","N/A","N/A","7","9","6","1","0","0.5","stim/N000.jpg","65","76","0.516666666","3","2","4","","3","2","3","0","1","3","3","3","0","1","0","3","4","5","0","6","6","0","4","2","3","6","0","5","6","6","0","6","5","5","1","1","2","0","0","3","3","2","4","4","2","2","3","3","3","1","4","4","4","0","0","1","4","1","0","3","3","2","4","3","3","agree","335.5","","","","","","","","<div style=""font-size:60px;"">?</div>","65","8","1","0.8"
"image-keyboard-response","50","447158","0.0-11.0-0.8","ugc9c62u9a51edd","1","601c0f63889d5f67eb49e823","26","04/1995","Single","Cantonese","English","Female","Asian","No","Undergraduate degree","No, currently not in school","N/A","N/A","N/A","7","9","6","1","0","0.5","stim/N000.jpg","65","76","0.516666666","3","2","4","","3","2","3","0","1","3","3","3","0","1","0","3","4","5","0","6","6","0","4","2","3","6","0","5","6","6","0","6","5","5","1","1","2","0","0","3","3","2","4","4","2","2","3","3","3","1","4","4","4","0","0","1","4","1","0","3","3","2","4","3","3","agree","null","","","","","","","","stim/H070.jpg","null","","",""
"html-keyboard-response","51","447401","0.0-11.0-1.8","ugc9c62u9a51edd","1","601c0f63889d5f67eb49e823","26","04/1995","Single","Cantonese","English","Female","Asian","No","Undergraduate degree","No, currently not in school","N/A","N/A","N/A","7","9","6","1","0","0.5","stim/N000.jpg","65","76","0.516666666","3","2","4","","3","2","3","0","1","3","3","3","0","1","0","3","4","5","0","6","6","0","4","2","3","6","0","5","6","6","0","6","5","5","1","1","2","0","0","3","3","2","4","4","2","2","3","3","3","1","4","4","4","0","0","1","4","1","0","3","3","2","4","3","3","agree","242.59999999403954","","","","","","","","<div style=""font-size:60px;"">?</div>","76","9","1","0.8"
"image-keyboard-response","52","448405","0.0-11.0-0.9","ugc9c62u9a51edd","1","601c0f63889d5f67eb49e823","26","04/1995","Single","Cantonese","English","Female","Asian","No","Undergraduate degree","No, currently not in school","N/A","N/A","N/A","7","9","6","1","0","0.5","stim/N000.jpg","65","76","0.516666666","3","2","4","","3","2","3","0","1","3","3","3","0","1","0","3","4","5","0","6","6","0","4","2","3","6","0","5","6","6","0","6","5","5","1","1","2","0","0","3","3","2","4","4","2","2","3","3","3","1","4","4","4","0","0","1","4","1","0","3","3","2","4","3","3","agree","null","","","","","","","","stim/H200.jpg","null","","",""
"html-keyboard-response","53","449114","0.0-11.0-1.9","ugc9c62u9a51edd","1","601c0f63889d5f67eb49e823","26","04/1995","Single","Cantonese","English","Female","Asian","No","Undergraduate degree","No, currently not in school","N/A","N/A","N/A","7","9","6","1","0","0.5","stim/N000.jpg","65","76","0.516666666","3","2","4","","3","2","3","0","1","3","3","3","0","1","0","3","4","5","0","6","6","0","4","2","3","6","0","5","6","6","0","6","5","5","1","1","2","0","0","3","3","2","4","4","2","2","3","3","3","1","4","4","4","0","0","1","4","1","0","3","3","2","4","3","3","agree","707.9000000059605","","","","","","","","<div style=""font-size:60px;"">?</div>","76","10","1","0.8"
"image-keyboard-response","54","450117","0.0-11.0-0.10","ugc9c62u9a51edd","1","601c0f63889d5f67eb49e823","26","04/1995","Single","Cantonese","English","Female","Asian","No","Undergraduate degree","No, currently not in school","N/A","N/A","N/A","7","9","6","1","0","0.5","stim/N000.jpg","65","76","0.516666666","3","2","4","","3","2","3","0","1","3","3","3","0","1","0","3","4","5","0","6","6","0","4","2","3","6","0","5","6","6","0","6","5","5","1","1","2","0","0","3","3","2","4","4","2","2","3","3","3","1","4","4","4","0","0","1","4","1","0","3","3","2","4","3","3","agree","null","","","","","","","","stim/H240.jpg","null","","",""
"html-keyboard-response","55","450404","0.0-11.0-1.10","ugc9c62u9a51edd","1","601c0f63889d5f67eb49e823","26","04/1995","Single","Cantonese","English","Female","Asian","No","Undergraduate degree","No, currently not in school","N/A","N/A","N/A","7","9","6","1","0","0.5","stim/N000.jpg","65","76","0.516666666","3","2","4","","3","2","3","0","1","3","3","3","0","1","0","3","4","5","0","6","6","0","4","2","3","6","0","5","6","6","0","6","5","5","1","1","2","0","0","3","3","2","4","4","2","2","3","3","3","1","4","4","4","0","0","1","4","1","0","3","3","2","4","3","3","agree","286.10000002384186","","","","","","","","<div style=""font-size:60px;"">?</div>","76","11","1","0.8"
"image-keyboard-response","56","451406","0.0-11.0-0.11","ugc9c62u9a51edd","1","601c0f63889d5f67eb49e823","26","04/1995","Single","Cantonese","English","Female","Asian","No","Undergraduate degree","No, currently not in school","N/A","N/A","N/A","7","9","6","1","0","0.5","stim/N000.jpg","65","76","0.516666666","3","2","4","","3","2","3","0","1","3","3","3","0","1","0","3","4","5","0","6","6","0","4","2","3","6","0","5","6","6","0","6","5","5","1","1","2","0","0","3","3","2","4","4","2","2","3","3","3","1","4","4","4","0","0","1","4","1","0","3","3","2","4","3","3","agree","null","","","","","","","","stim/T200.jpg","null","","",""
"html-keyboard-response","57","451664","0.0-11.0-1.11","ugc9c62u9a51edd","1","601c0f63889d5f67eb49e823","26","04/1995","Single","Cantonese","English","Female","Asian","No","Undergraduate degree","No, currently not in school","N/A","N/A","N/A","7","9","6","1","0","0.5","stim/N000.jpg","65","76","0.516666666","3","2","4","","3","2","3","0","1","3","3","3","0","1","0","3","4","5","0","6","6","0","4","2","3","6","0","5","6","6","0","6","5","5","1","1","2","0","0","3","3","2","4","4","2","2","3","3","3","1","4","4","4","0","0","1","4","1","0","3","3","2","4","3","3","agree","256.69999998807907","","","","","","","","<div style=""font-size:60px;"">?</div>","65","12","1","0.8"
"image-keyboard-response","58","452667","0.0-11.0-0.12","ugc9c62u9a51edd","1","601c0f63889d5f67eb49e823","26","04/1995","Single","Cantonese","English","Female","Asian","No","Undergraduate degree","No, currently not in school","N/A","N/A","N/A","7","9","6","1","0","0.5","stim/N000.jpg","65","76","0.516666666","3","2","4","","3","2","3","0","1","3","3","3","0","1","0","3","4","5","0","6","6","0","4","2","3","6","0","5","6","6","0","6","5","5","1","1","2","0","0","3","3","2","4","4","2","2","3","3","3","1","4","4","4","0","0","1","4","1","0","3","3","2","4","3","3","agree","null","","","","","","","","stim/H150.jpg","null","","",""
"html-keyboard-response","59","452904","0.0-11.0-1.12","ugc9c62u9a51edd","1","601c0f63889d5f67eb49e823","26","04/1995","Single","Cantonese","English","Female","Asian","No","Undergraduate degree","No, currently not in school","N/A","N/A","N/A","7","9","6","1","0","0.5","stim/N000.jpg","65","76","0.516666666","3","2","4","","3","2","3","0","1","3","3","3","0","1","0","3","4","5","0","6","6","0","4","2","3","6","0","5","6","6","0","6","5","5","1","1","2","0","0","3","3","2","4","4","2","2","3","3","3","1","4","4","4","0","0","1","4","1","0","3","3","2","4","3","3","agree","235.90000000596046","","","","","","","","<div style=""font-size:60px;"">?</div>","76","13","1","0.8"
"image-keyboard-response","60","453908","0.0-11.0-0.13","ugc9c62u9a51edd","1","601c0f63889d5f67eb49e823","26","04/1995","Single","Cantonese","English","Female","Asian","No","Undergraduate degree","No, currently not in school","N/A","N/A","N/A","7","9","6","1","0","0.5","stim/N000.jpg","65","76","0.516666666","3","2","4","","3","2","3","0","1","3","3","3","0","1","0","3","4","5","0","6","6","0","4","2","3","6","0","5","6","6","0","6","5","5","1","1","2","0","0","3","3","2","4","4","2","2","3","3","3","1","4","4","4","0","0","1","4","1","0","3","3","2","4","3","3","agree","null","","","","","","","","stim/H270.jpg","null","","",""
"html-keyboard-response","61","454190","0.0-11.0-1.13","ugc9c62u9a51edd","1","601c0f63889d5f67eb49e823","26","04/1995","Single","Cantonese","English","Female","Asian","No","Undergraduate degree","No, currently not in school","N/A","N/A","N/A","7","9","6","1","0","0.5","stim/N000.jpg","65","76","0.516666666","3","2","4","","3","2","3","0","1","3","3","3","0","1","0","3","4","5","0","6","6","0","4","2","3","6","0","5","6","6","0","6","5","5","1","1","2","0","0","3","3","2","4","4","2","2","3","3","3","1","4","4","4","0","0","1","4","1","0","3","3","2","4","3","3","agree","280.60000002384186","","","","","","","","<div style=""font-size:60px;"">?</div>","76","14","1","0.8"
"image-keyboard-response","62","455193","0.0-11.0-0.14","ugc9c62u9a51edd","1","601c0f63889d5f67eb49e823","26","04/1995","Single","Cantonese","English","Female","Asian","No","Undergraduate degree","No, currently not in school","N/A","N/A","N/A","7","9","6","1","0","0.5","stim/N000.jpg","65","76","0.516666666","3","2","4","","3","2","3","0","1","3","3","3","0","1","0","3","4","5","0","6","6","0","4","2","3","6","0","5","6","6","0","6","5","5","1","1","2","0","0","3","3","2","4","4","2","2","3","3","3","1","4","4","4","0","0","1","4","1","0","3","3","2","4","3","3","agree","null","","","","","","","","stim/H040.jpg","null","","",""
"html-keyboard-response","63","455578","0.0-11.0-1.14","ugc9c62u9a51edd","1","601c0f63889d5f67eb49e823","26","04/1995","Single","Cantonese","English","Female","Asian","No","Undergraduate degree","No, currently not in school","N/A","N/A","N/A","7","9","6","1","0","0.5","stim/N000.jpg","65","76","0.516666666","3","2","4","","3","2","3","0","1","3","3","3","0","1","0","3","4","5","0","6","6","0","4","2","3","6","0","5","6","6","0","6","5","5","1","1","2","0","0","3","3","2","4","4","2","2","3","3","3","1","4","4","4","0","0","1","4","1","0","3","3","2","4","3","3","agree","384.40000000596046","","","","","","","","<div style=""font-size:60px;"">?</div>","65","15","1","0.8"
"image-keyboard-response","64","456582","0.0-11.0-0.15","ugc9c62u9a51edd","1","601c0f63889d5f67eb49e823","26","04/1995","Single","Cantonese","English","Female","Asian","No","Undergraduate degree","No, currently not in school","N/A","N/A","N/A","7","9","6","1","0","0.5","stim/N000.jpg","65","76","0.516666666","3","2","4","","3","2","3","0","1","3","3","3","0","1","0","3","4","5","0","6","6","0","4","2","3","6","0","5","6","6","0","6","5","5","1","1","2","0","0","3","3","2","4","4","2","2","3","3","3","1","4","4","4","0","0","1","4","1","0","3","3","2","4","3","3","agree","null","","","","","","","","stim/H100.jpg","null","","",""
"html-keyboard-response","65","456939","0.0-11.0-1.15","ugc9c62u9a51edd","1","601c0f63889d5f67eb49e823","26","04/1995","Single","Cantonese","English","Female","Asian","No","Undergraduate degree","No, currently not in school","N/A","N/A","N/A","7","9","6","1","0","0.5","stim/N000.jpg","65","76","0.516666666","3","2","4","","3","2","3","0","1","3","3","3","0","1","0","3","4","5","0","6","6","0","4","2","3","6","0","5","6","6","0","6","5","5","1","1","2","0","0","3","3","2","4","4","2","2","3","3","3","1","4","4","4","0","0","1","4","1","0","3","3","2","4","3","3","agree","356.5","","","","","","","","<div style=""font-size:60px;"">?</div>","76","16","1","0.8"
"image-keyboard-response","66","457941","0.0-11.0-0.16","ugc9c62u9a51edd","1","601c0f63889d5f67eb49e823","26","04/1995","Single","Cantonese","English","Female","Asian","No","Undergraduate degree","No, currently not in school","N/A","N/A","N/A","7","9","6","1","0","0.5","stim/N000.jpg","65","76","0.516666666","3","2","4","","3","2","3","0","1","3","3","3","0","1","0","3","4","5","0","6","6","0","4","2","3","6","0","5","6","6","0","6","5","5","1","1","2","0","0","3","3","2","4","4","2","2","3","3","3","1","4","4","4","0","0","1","4","1","0","3","3","2","4","3","3","agree","null","","","","","","","","stim/H040.jpg","null","","",""
"html-keyboard-response","67","458317","0.0-11.0-1.16","ugc9c62u9a51edd","1","601c0f63889d5f67eb49e823","26","04/1995","Single","Cantonese","English","Female","Asian","No","Undergraduate degree","No, currently not in school","N/A","N/A","N/A","7","9","6","1","0","0.5","stim/N000.jpg","65","76","0.516666666","3","2","4","","3","2","3","0","1","3","3","3","0","1","0","3","4","5","0","6","6","0","4","2","3","6","0","5","6","6","0","6","5","5","1","1","2","0","0","3","3","2","4","4","2","2","3","3","3","1","4","4","4","0","0","1","4","1","0","3","3","2","4","3","3","agree","375.09999999403954","","","","","","","","<div style=""font-size:60px;"">?</div>","76","17","1","0.8"
"image-keyboard-response","68","459320","0.0-11.0-0.17","ugc9c62u9a51edd","1","601c0f63889d5f67eb49e823","26","04/1995","Single","Cantonese","English","Female","Asian","No","Undergraduate degree","No, currently not in school","N/A","N/A","N/A","7","9","6","1","0","0.5","stim/N000.jpg","65","76","0.516666666","3","2","4","","3","2","3","0","1","3","3","3","0","1","0","3","4","5","0","6","6","0","4","2","3","6","0","5","6","6","0","6","5","5","1","1","2","0","0","3","3","2","4","4","2","2","3","3","3","1","4","4","4","0","0","1","4","1","0","3","3","2","4","3","3","agree","null","","","","","","","","stim/H170.jpg","null","","",""
"html-keyboard-response","69","459664","0.0-11.0-1.17","ugc9c62u9a51edd","1","601c0f63889d5f67eb49e823","26","04/1995","Single","Cantonese","English","Female","Asian","No","Undergraduate degree","No, currently not in school","N/A","N/A","N/A","7","9","6","1","0","0.5","stim/N000.jpg","65","76","0.516666666","3","2","4","","3","2","3","0","1","3","3","3","0","1","0","3","4","5","0","6","6","0","4","2","3","6","0","5","6","6","0","6","5","5","1","1","2","0","0","3","3","2","4","4","2","2","3","3","3","1","4","4","4","0","0","1","4","1","0","3","3","2","4","3","3","agree","343.19999998807907","","","","","","","","<div style=""font-size:60px;"">?</div>","76","18","1","0.8"
"image-keyboard-response","70","460676","0.0-11.0-0.18","ugc9c62u9a51edd","1","601c0f63889d5f67eb49e823","26","04/1995","Single","Cantonese","English","Female","Asian","No","Undergraduate degree","No, currently not in school","N/A","N/A","N/A","7","9","6","1","0","0.5","stim/N000.jpg","65","76","0.516666666","3","2","4","","3","2","3","0","1","3","3","3","0","1","0","3","4","5","0","6","6","0","4","2","3","6","0","5","6","6","0","6","5","5","1","1","2","0","0","3","3","2","4","4","2","2","3","3","3","1","4","4","4","0","0","1","4","1","0","3","3","2","4","3","3","agree","null","","","","","","","","stim/H100.jpg","null","","",""
"html-keyboard-response","71","460940","0.0-11.0-1.18","ugc9c62u9a51edd","1","601c0f63889d5f67eb49e823","26","04/1995","Single","Cantonese","English","Female","Asian","No","Undergraduate degree","No, currently not in school","N/A","N/A","N/A","7","9","6","1","0","0.5","stim/N000.jpg","65","76","0.516666666","3","2","4","","3","2","3","0","1","3","3","3","0","1","0","3","4","5","0","6","6","0","4","2","3","6","0","5","6","6","0","6","5","5","1","1","2","0","0","3","3","2","4","4","2","2","3","3","3","1","4","4","4","0","0","1","4","1","0","3","3","2","4","3","3","agree","263.7000000178814","","","","","","","","<div style=""font-size:60px;"">?</div>","76","19","1","0.8"
"image-keyboard-response","72","461943","0.0-11.0-0.19","ugc9c62u9a51edd","1","601c0f63889d5f67eb49e823","26","04/1995","Single","Cantonese","English","Female","Asian","No","Undergraduate degree","No, currently not in school","N/A","N/A","N/A","7","9","6","1","0","0.5","stim/N000.jpg","65","76","0.516666666","3","2","4","","3","2","3","0","1","3","3","3","0","1","0","3","4","5","0","6","6","0","4","2","3","6","0","5","6","6","0","6","5","5","1","1","2","0","0","3","3","2","4","4","2","2","3","3","3","1","4","4","4","0","0","1","4","1","0","3","3","2","4","3","3","agree","null","","","","","","","","stim/H050.jpg","null","","",""
"html-keyboard-response","73","462255","0.0-11.0-1.19","ugc9c62u9a51edd","1","601c0f63889d5f67eb49e823","26","04/1995","Single","Cantonese","English","Female","Asian","No","Undergraduate degree","No, currently not in school","N/A","N/A","N/A","7","9","6","1","0","0.5","stim/N000.jpg","65","76","0.516666666","3","2","4","","3","2","3","0","1","3","3","3","0","1","0","3","4","5","0","6","6","0","4","2","3","6","0","5","6","6","0","6","5","5","1","1","2","0","0","3","3","2","4","4","2","2","3","3","3","1","4","4","4","0","0","1","4","1","0","3","3","2","4","3","3","agree","311.09999999403954","","","","","","","","<div style=""font-size:60px;"">?</div>","76","20","1","0.8"
"image-keyboard-response","74","463258","0.0-11.0-0.20","ugc9c62u9a51edd","1","601c0f63889d5f67eb49e823","26","04/1995","Single","Cantonese","English","Female","Asian","No","Undergraduate degree","No, currently not in school","N/A","N/A","N/A","7","9","6","1","0","0.5","stim/N000.jpg","65","76","0.516666666","3","2","4","","3","2","3","0","1","3","3","3","0","1","0","3","4","5","0","6","6","0","4","2","3","6","0","5","6","6","0","6","5","5","1","1","2","0","0","3","3","2","4","4","2","2","3","3","3","1","4","4","4","0","0","1","4","1","0","3","3","2","4","3","3","agree","null","","","","","","","","stim/H110.jpg","null","","",""
"html-keyboard-response","75","463576","0.0-11.0-1.20","ugc9c62u9a51edd","1","601c0f63889d5f67eb49e823","26","04/1995","Single","Cantonese","English","Female","Asian","No","Undergraduate degree","No, currently not in school","N/A","N/A","N/A","7","9","6","1","0","0.5","stim/N000.jpg","65","76","0.516666666","3","2","4","","3","2","3","0","1","3","3","3","0","1","0","3","4","5","0","6","6","0","4","2","3","6","0","5","6","6","0","6","5","5","1","1","2","0","0","3","3","2","4","4","2","2","3","3","3","1","4","4","4","0","0","1","4","1","0","3","3","2","4","3","3","agree","317.2999999821186","","","","","","","","<div style=""font-size:60px;"">?</div>","76","21","1","0.8"
"image-keyboard-response","76","464584","0.0-11.0-0.21","ugc9c62u9a51edd","1","601c0f63889d5f67eb49e823","26","04/1995","Single","Cantonese","English","Female","Asian","No","Undergraduate degree","No, currently not in school","N/A","N/A","N/A","7","9","6","1","0","0.5","stim/N000.jpg","65","76","0.516666666","3","2","4","","3","2","3","0","1","3","3","3","0","1","0","3","4","5","0","6","6","0","4","2","3","6","0","5","6","6","0","6","5","5","1","1","2","0","0","3","3","2","4","4","2","2","3","3","3","1","4","4","4","0","0","1","4","1","0","3","3","2","4","3","3","agree","null","","","","","","","","stim/H230.jpg","null","","",""
"html-keyboard-response","77","464889","0.0-11.0-1.21","ugc9c62u9a51edd","1","601c0f63889d5f67eb49e823","26","04/1995","Single","Cantonese","English","Female","Asian","No","Undergraduate degree","No, currently not in school","N/A","N/A","N/A","7","9","6","1","0","0.5","stim/N000.jpg","65","76","0.516666666","3","2","4","","3","2","3","0","1","3","3","3","0","1","0","3","4","5","0","6","6","0","4","2","3","6","0","5","6","6","0","6","5","5","1","1","2","0","0","3","3","2","4","4","2","2","3","3","3","1","4","4","4","0","0","1","4","1","0","3","3","2","4","3","3","agree","304.30000001192093","","","","","","","","<div style=""font-size:60px;"">?</div>","76","22","1","0.8"
"image-keyboard-response","78","465892","0.0-11.0-0.22","ugc9c62u9a51edd","1","601c0f63889d5f67eb49e823","26","04/1995","Single","Cantonese","English","Female","Asian","No","Undergraduate degree","No, currently not in school","N/A","N/A","N/A","7","9","6","1","0","0.5","stim/N000.jpg","65","76","0.516666666","3","2","4","","3","2","3","0","1","3","3","3","0","1","0","3","4","5","0","6","6","0","4","2","3","6","0","5","6","6","0","6","5","5","1","1","2","0","0","3","3","2","4","4","2","2","3","3","3","1","4","4","4","0","0","1","4","1","0","3","3","2","4","3","3","agree","null","","","","","","","","stim/H150.jpg","null","","",""
"html-keyboard-response","79","466142","0.0-11.0-1.22","ugc9c62u9a51edd","1","601c0f63889d5f67eb49e823","26","04/1995","Single","Cantonese","English","Female","Asian","No","Undergraduate degree","No, currently not in school","N/A","N/A","N/A","7","9","6","1","0","0.5","stim/N000.jpg","65","76","0.516666666","3","2","4","","3","2","3","0","1","3","3","3","0","1","0","3","4","5","0","6","6","0","4","2","3","6","0","5","6","6","0","6","5","5","1","1","2","0","0","3","3","2","4","4","2","2","3","3","3","1","4","4","4","0","0","1","4","1","0","3","3","2","4","3","3","agree","249.59999999403954","","","","","","","","<div style=""font-size:60px;"">?</div>","76","23","1","0.8"
"image-keyboard-response","80","467145","0.0-11.0-0.23","ugc9c62u9a51edd","1","601c0f63889d5f67eb49e823","26","04/1995","Single","Cantonese","English","Female","Asian","No","Undergraduate degree","No, currently not in school","N/A","N/A","N/A","7","9","6","1","0","0.5","stim/N000.jpg","65","76","0.516666666","3","2","4","","3","2","3","0","1","3","3","3","0","1","0","3","4","5","0","6","6","0","4","2","3","6","0","5","6","6","0","6","5","5","1","1","2","0","0","3","3","2","4","4","2","2","3","3","3","1","4","4","4","0","0","1","4","1","0","3","3","2","4","3","3","agree","null","","","","","","","","stim/H170.jpg","null","","",""
"html-keyboard-response","81","467458","0.0-11.0-1.23","ugc9c62u9a51edd","1","601c0f63889d5f67eb49e823","26","04/1995","Single","Cantonese","English","Female","Asian","No","Undergraduate degree","No, currently not in school","N/A","N/A","N/A","7","9","6","1","0","0.5","stim/N000.jpg","65","76","0.516666666","3","2","4","","3","2","3","0","1","3","3","3","0","1","0","3","4","5","0","6","6","0","4","2","3","6","0","5","6","6","0","6","5","5","1","1","2","0","0","3","3","2","4","4","2","2","3","3","3","1","4","4","4","0","0","1","4","1","0","3","3","2","4","3","3","agree","312.30000001192093","","","","","","","","<div style=""font-size:60px;"">?</div>","76","24","1","0.8"
"image-keyboard-response","82","468461","0.0-11.0-0.24","ugc9c62u9a51edd","1","601c0f63889d5f67eb49e823","26","04/1995","Single","Cantonese","English","Female","Asian","No","Undergraduate degree","No, currently not in school","N/A","N/A","N/A","7","9","6","1","0","0.5","stim/N000.jpg","65","76","0.516666666","3","2","4","","3","2","3","0","1","3","3","3","0","1","0","3","4","5","0","6","6","0","4","2","3","6","0","5","6","6","0","6","5","5","1","1","2","0","0","3","3","2","4","4","2","2","3","3","3","1","4","4","4","0","0","1","4","1","0","3","3","2","4","3","3","agree","null","","","","","","","","stim/T030.jpg","null","","",""
"html-keyboard-response","83","468812","0.0-11.0-1.24","ugc9c62u9a51edd","1","601c0f63889d5f67eb49e823","26","04/1995","Single","Cantonese","English","Female","Asian","No","Undergraduate degree","No, currently not in school","N/A","N/A","N/A","7","9","6","1","0","0.5","stim/N000.jpg","65","76","0.516666666","3","2","4","","3","2","3","0","1","3","3","3","0","1","0","3","4","5","0","6","6","0","4","2","3","6","0","5","6","6","0","6","5","5","1","1","2","0","0","3","3","2","4","4","2","2","3","3","3","1","4","4","4","0","0","1","4","1","0","3","3","2","4","3","3","agree","349.69999998807907","","","","","","","","<div style=""font-size:60px;"">?</div>","65","25","1","0.8"
"image-keyboard-response","84","469814","0.0-11.0-0.25","ugc9c62u9a51edd","1","601c0f63889d5f67eb49e823","26","04/1995","Single","Cantonese","English","Female","Asian","No","Undergraduate degree","No, currently not in school","N/A","N/A","N/A","7","9","6","1","0","0.5","stim/N000.jpg","65","76","0.516666666","3","2","4","","3","2","3","0","1","3","3","3","0","1","0","3","4","5","0","6","6","0","4","2","3","6","0","5","6","6","0","6","5","5","1","1","2","0","0","3","3","2","4","4","2","2","3","3","3","1","4","4","4","0","0","1","4","1","0","3","3","2","4","3","3","agree","null","","","","","","","","stim/H290.jpg","null","","",""
"html-keyboard-response","85","470080","0.0-11.0-1.25","ugc9c62u9a51edd","1","601c0f63889d5f67eb49e823","26","04/1995","Single","Cantonese","English","Female","Asian","No","Undergraduate degree","No, currently not in school","N/A","N/A","N/A","7","9","6","1","0","0.5","stim/N000.jpg","65","76","0.516666666","3","2","4","","3","2","3","0","1","3","3","3","0","1","0","3","4","5","0","6","6","0","4","2","3","6","0","5","6","6","0","6","5","5","1","1","2","0","0","3","3","2","4","4","2","2","3","3","3","1","4","4","4","0","0","1","4","1","0","3","3","2","4","3","3","agree","265.19999998807907","","","","","","","","<div style=""font-size:60px;"">?</div>","76","26","1","0.8"
"image-keyboard-response","86","471083","0.0-11.0-0.26","ugc9c62u9a51edd","1","601c0f63889d5f67eb49e823","26","04/1995","Single","Cantonese","English","Female","Asian","No","Undergraduate degree","No, currently not in school","N/A","N/A","N/A","7","9","6","1","0","0.5","stim/N000.jpg","65","76","0.516666666","3","2","4","","3","2","3","0","1","3","3","3","0","1","0","3","4","5","0","6","6","0","4","2","3","6","0","5","6","6","0","6","5","5","1","1","2","0","0","3","3","2","4","4","2","2","3","3","3","1","4","4","4","0","0","1","4","1","0","3","3","2","4","3","3","agree","null","","","","","","","","stim/T260.jpg","null","","",""
"html-keyboard-response","87","471584","0.0-11.0-1.26","ugc9c62u9a51edd","1","601c0f63889d5f67eb49e823","26","04/1995","Single","Cantonese","English","Female","Asian","No","Undergraduate degree","No, currently not in school","N/A","N/A","N/A","7","9","6","1","0","0.5","stim/N000.jpg","65","76","0.516666666","3","2","4","","3","2","3","0","1","3","3","3","0","1","0","3","4","5","0","6","6","0","4","2","3","6","0","5","6","6","0","6","5","5","1","1","2","0","0","3","3","2","4","4","2","2","3","3","3","1","4","4","4","0","0","1","4","1","0","3","3","2","4","3","3","agree","500.60000002384186","","","","","","","","<div style=""font-size:60px;"">?</div>","65","27","1","0.8"
"image-keyboard-response","88","472587","0.0-11.0-0.27","ugc9c62u9a51edd","1","601c0f63889d5f67eb49e823","26","04/1995","Single","Cantonese","English","Female","Asian","No","Undergraduate degree","No, currently not in school","N/A","N/A","N/A","7","9","6","1","0","0.5","stim/N000.jpg","65","76","0.516666666","3","2","4","","3","2","3","0","1","3","3","3","0","1","0","3","4","5","0","6","6","0","4","2","3","6","0","5","6","6","0","6","5","5","1","1","2","0","0","3","3","2","4","4","2","2","3","3","3","1","4","4","4","0","0","1","4","1","0","3","3","2","4","3","3","agree","null","","","","","","","","stim/T170.jpg","null","","",""
"html-keyboard-response","89","472861","0.0-11.0-1.27","ugc9c62u9a51edd","1","601c0f63889d5f67eb49e823","26","04/1995","Single","Cantonese","English","Female","Asian","No","Undergraduate degree","No, currently not in school","N/A","N/A","N/A","7","9","6","1","0","0.5","stim/N000.jpg","65","76","0.516666666","3","2","4","","3","2","3","0","1","3","3","3","0","1","0","3","4","5","0","6","6","0","4","2","3","6","0","5","6","6","0","6","5","5","1","1","2","0","0","3","3","2","4","4","2","2","3","3","3","1","4","4","4","0","0","1","4","1","0","3","3","2","4","3","3","agree","273","","","","","","","","<div style=""font-size:60px;"">?</div>","65","28","1","0.8"
"image-keyboard-response","90","473865","0.0-11.0-0.28","ugc9c62u9a51edd","1","601c0f63889d5f67eb49e823","26","04/1995","Single","Cantonese","English","Female","Asian","No","Undergraduate degree","No, currently not in school","N/A","N/A","N/A","7","9","6","1","0","0.5","stim/N000.jpg","65","76","0.516666666","3","2","4","","3","2","3","0","1","3","3","3","0","1","0","3","4","5","0","6","6","0","4","2","3","6","0","5","6","6","0","6","5","5","1","1","2","0","0","3","3","2","4","4","2","2","3","3","3","1","4","4","4","0","0","1","4","1","0","3","3","2","4","3","3","agree","null","","","","","","","","stim/H030.jpg","null","","",""
"html-keyboard-response","91","474095","0.0-11.0-1.28","ugc9c62u9a51edd","1","601c0f63889d5f67eb49e823","26","04/1995","Single","Cantonese","English","Female","Asian","No","Undergraduate degree","No, currently not in school","N/A","N/A","N/A","7","9","6","1","0","0.5","stim/N000.jpg","65","76","0.516666666","3","2","4","","3","2","3","0","1","3","3","3","0","1","0","3","4","5","0","6","6","0","4","2","3","6","0","5","6","6","0","6","5","5","1","1","2","0","0","3","3","2","4","4","2","2","3","3","3","1","4","4","4","0","0","1","4","1","0","3","3","2","4","3","3","agree","229.2999999821186","","","","","","","","<div style=""font-size:60px;"">?</div>","76","29","1","0.8"
"image-keyboard-response","92","475097","0.0-11.0-0.29","ugc9c62u9a51edd","1","601c0f63889d5f67eb49e823","26","04/1995","Single","Cantonese","English","Female","Asian","No","Undergraduate degree","No, currently not in school","N/A","N/A","N/A","7","9","6","1","0","0.5","stim/N000.jpg","65","76","0.516666666","3","2","4","","3","2","3","0","1","3","3","3","0","1","0","3","4","5","0","6","6","0","4","2","3","6","0","5","6","6","0","6","5","5","1","1","2","0","0","3","3","2","4","4","2","2","3","3","3","1","4","4","4","0","0","1","4","1","0","3","3","2","4","3","3","agree","null","","","","","","","","stim/H250.jpg","null","","",""
"html-keyboard-response","93","475413","0.0-11.0-1.29","ugc9c62u9a51edd","1","601c0f63889d5f67eb49e823","26","04/1995","Single","Cantonese","English","Female","Asian","No","Undergraduate degree","No, currently not in school","N/A","N/A","N/A","7","9","6","1","0","0.5","stim/N000.jpg","65","76","0.516666666","3","2","4","","3","2","3","0","1","3","3","3","0","1","0","3","4","5","0","6","6","0","4","2","3","6","0","5","6","6","0","6","5","5","1","1","2","0","0","3","3","2","4","4","2","2","3","3","3","1","4","4","4","0","0","1","4","1","0","3","3","2","4","3","3","agree","314.90000000596046","","","","","","","","<div style=""font-size:60px;"">?</div>","76","30","1","0.8"
"image-keyboard-response","94","476415","0.0-11.0-0.30","ugc9c62u9a51edd","1","601c0f63889d5f67eb49e823","26","04/1995","Single","Cantonese","English","Female","Asian","No","Undergraduate degree","No, currently not in school","N/A","N/A","N/A","7","9","6","1","0","0.5","stim/N000.jpg","65","76","0.516666666","3","2","4","","3","2","3","0","1","3","3","3","0","1","0","3","4","5","0","6","6","0","4","2","3","6","0","5","6","6","0","6","5","5","1","1","2","0","0","3","3","2","4","4","2","2","3","3","3","1","4","4","4","0","0","1","4","1","0","3","3","2","4","3","3","agree","null","","","","","","","","stim/H140.jpg","null","","",""
"html-keyboard-response","95","476680","0.0-11.0-1.30","ugc9c62u9a51edd","1","601c0f63889d5f67eb49e823","26","04/1995","Single","Cantonese","English","Female","Asian","No","Undergraduate degree","No, currently not in school","N/A","N/A","N/A","7","9","6","1","0","0.5","stim/N000.jpg","65","76","0.516666666","3","2","4","","3","2","3","0","1","3","3","3","0","1","0","3","4","5","0","6","6","0","4","2","3","6","0","5","6","6","0","6","5","5","1","1","2","0","0","3","3","2","4","4","2","2","3","3","3","1","4","4","4","0","0","1","4","1","0","3","3","2","4","3","3","agree","264.19999998807907","","","","","","","","<div style=""font-size:60px;"">?</div>","76","31","1","0.8"
"image-keyboard-response","96","477682","0.0-11.0-0.31","ugc9c62u9a51edd","1","601c0f63889d5f67eb49e823","26","04/1995","Single","Cantonese","English","Female","Asian","No","Undergraduate degree","No, currently not in school","N/A","N/A","N/A","7","9","6","1","0","0.5","stim/N000.jpg","65","76","0.516666666","3","2","4","","3","2","3","0","1","3","3","3","0","1","0","3","4","5","0","6","6","0","4","2","3","6","0","5","6","6","0","6","5","5","1","1","2","0","0","3","3","2","4","4","2","2","3","3","3","1","4","4","4","0","0","1","4","1","0","3","3","2","4","3","3","agree","null","","","","","","","","stim/H120.jpg","null","","",""
"html-keyboard-response","97","477939","0.0-11.0-1.31","ugc9c62u9a51edd","1","601c0f63889d5f67eb49e823","26","04/1995","Single","Cantonese","English","Female","Asian","No","Undergraduate degree","No, currently not in school","N/A","N/A","N/A","7","9","6","1","0","0.5","stim/N000.jpg","65","76","0.516666666","3","2","4","","3","2","3","0","1","3","3","3","0","1","0","3","4","5","0","6","6","0","4","2","3","6","0","5","6","6","0","6","5","5","1","1","2","0","0","3","3","2","4","4","2","2","3","3","3","1","4","4","4","0","0","1","4","1","0","3","3","2","4","3","3","agree","255.59999999403954","","","","","","","","<div style=""font-size:60px;"">?</div>","76","32","1","0.8"
"image-keyboard-response","98","478941","0.0-11.0-0.32","ugc9c62u9a51edd","1","601c0f63889d5f67eb49e823","26","04/1995","Single","Cantonese","English","Female","Asian","No","Undergraduate degree","No, currently not in school","N/A","N/A","N/A","7","9","6","1","0","0.5","stim/N000.jpg","65","76","0.516666666","3","2","4","","3","2","3","0","1","3","3","3","0","1","0","3","4","5","0","6","6","0","4","2","3","6","0","5","6","6","0","6","5","5","1","1","2","0","0","3","3","2","4","4","2","2","3","3","3","1","4","4","4","0","0","1","4","1","0","3","3","2","4","3","3","agree","null","","","","","","","","stim/H220.jpg","null","","",""
"html-keyboard-response","99","479184","0.0-11.0-1.32","ugc9c62u9a51edd","1","601c0f63889d5f67eb49e823","26","04/1995","Single","Cantonese","English","Female","Asian","No","Undergraduate degree","No, currently not in school","N/A","N/A","N/A","7","9","6","1","0","0.5","stim/N000.jpg","65","76","0.516666666","3","2","4","","3","2","3","0","1","3","3","3","0","1","0","3","4","5","0","6","6","0","4","2","3","6","0","5","6","6","0","6","5","5","1","1","2","0","0","3","3","2","4","4","2","2","3","3","3","1","4","4","4","0","0","1","4","1","0","3","3","2","4","3","3","agree","241.90000000596046","","","","","","","","<div style=""font-size:60px;"">?</div>","76","33","1","0.8"
"image-keyboard-response","100","480186","0.0-11.0-0.33","ugc9c62u9a51edd","1","601c0f63889d5f67eb49e823","26","04/1995","Single","Cantonese","English","Female","Asian","No","Undergraduate degree","No, currently not in school","N/A","N/A","N/A","7","9","6","1","0","0.5","stim/N000.jpg","65","76","0.516666666","3","2","4","","3","2","3","0","1","3","3","3","0","1","0","3","4","5","0","6","6","0","4","2","3","6","0","5","6","6","0","6","5","5","1","1","2","0","0","3","3","2","4","4","2","2","3","3","3","1","4","4","4","0","0","1","4","1","0","3","3","2","4","3","3","agree","null","","","","","","","","stim/T010.jpg","null","","",""
"html-keyboard-response","101","480478","0.0-11.0-1.33","ugc9c62u9a51edd","1","601c0f63889d5f67eb49e823","26","04/1995","Single","Cantonese","English","Female","Asian","No","Undergraduate degree","No, currently not in school","N/A","N/A","N/A","7","9","6","1","0","0.5","stim/N000.jpg","65","76","0.516666666","3","2","4","","3","2","3","0","1","3","3","3","0","1","0","3","4","5","0","6","6","0","4","2","3","6","0","5","6","6","0","6","5","5","1","1","2","0","0","3","3","2","4","4","2","2","3","3","3","1","4","4","4","0","0","1","4","1","0","3","3","2","4","3","3","agree","291.2000000178814","","","","","","","","<div style=""font-size:60px;"">?</div>","65","34","1","0.8"
"image-keyboard-response","102","481479","0.0-11.0-0.34","ugc9c62u9a51edd","1","601c0f63889d5f67eb49e823","26","04/1995","Single","Cantonese","English","Female","Asian","No","Undergraduate degree","No, currently not in school","N/A","N/A","N/A","7","9","6","1","0","0.5","stim/N000.jpg","65","76","0.516666666","3","2","4","","3","2","3","0","1","3","3","3","0","1","0","3","4","5","0","6","6","0","4","2","3","6","0","5","6","6","0","6","5","5","1","1","2","0","0","3","3","2","4","4","2","2","3","3","3","1","4","4","4","0","0","1","4","1","0","3","3","2","4","3","3","agree","null","","","","","","","","stim/H250.jpg","null","","",""
"html-keyboard-response","103","481802","0.0-11.0-1.34","ugc9c62u9a51edd","1","601c0f63889d5f67eb49e823","26","04/1995","Single","Cantonese","English","Female","Asian","No","Undergraduate degree","No, currently not in school","N/A","N/A","N/A","7","9","6","1","0","0.5","stim/N000.jpg","65","76","0.516666666","3","2","4","","3","2","3","0","1","3","3","3","0","1","0","3","4","5","0","6","6","0","4","2","3","6","0","5","6","6","0","6","5","5","1","1","2","0","0","3","3","2","4","4","2","2","3","3","3","1","4","4","4","0","0","1","4","1","0","3","3","2","4","3","3","agree","322.2999999821186","","","","","","","","<div style=""font-size:60px;"">?</div>","76","35","1","0.8"
"image-keyboard-response","104","482805","0.0-11.0-0.35","ugc9c62u9a51edd","1","601c0f63889d5f67eb49e823","26","04/1995","Single","Cantonese","English","Female","Asian","No","Undergraduate degree","No, currently not in school","N/A","N/A","N/A","7","9","6","1","0","0.5","stim/N000.jpg","65","76","0.516666666","3","2","4","","3","2","3","0","1","3","3","3","0","1","0","3","4","5","0","6","6","0","4","2","3","6","0","5","6","6","0","6","5","5","1","1","2","0","0","3","3","2","4","4","2","2","3","3","3","1","4","4","4","0","0","1","4","1","0","3","3","2","4","3","3","agree","null","","","","","","","","stim/H020.jpg","null","","",""
"html-keyboard-response","105","483111","0.0-11.0-1.35","ugc9c62u9a51edd","1","601c0f63889d5f67eb49e823","26","04/1995","Single","Cantonese","English","Female","Asian","No","Undergraduate degree","No, currently not in school","N/A","N/A","N/A","7","9","6","1","0","0.5","stim/N000.jpg","65","76","0.516666666","3","2","4","","3","2","3","0","1","3","3","3","0","1","0","3","4","5","0","6","6","0","4","2","3","6","0","5","6","6","0","6","5","5","1","1","2","0","0","3","3","2","4","4","2","2","3","3","3","1","4","4","4","0","0","1","4","1","0","3","3","2","4","3","3","agree","305.69999998807907","","","","","","","","<div style=""font-size:60px;"">?</div>","65","36","1","0.8"
"image-keyboard-response","106","484114","0.0-11.0-0.36","ugc9c62u9a51edd","1","601c0f63889d5f67eb49e823","26","04/1995","Single","Cantonese","English","Female","Asian","No","Undergraduate degree","No, currently not in school","N/A","N/A","N/A","7","9","6","1","0","0.5","stim/N000.jpg","65","76","0.516666666","3","2","4","","3","2","3","0","1","3","3","3","0","1","0","3","4","5","0","6","6","0","4","2","3","6","0","5","6","6","0","6","5","5","1","1","2","0","0","3","3","2","4","4","2","2","3","3","3","1","4","4","4","0","0","1","4","1","0","3","3","2","4","3","3","agree","null","","","","","","","","stim/H280.jpg","null","","",""
"html-keyboard-response","107","484406","0.0-11.0-1.36","ugc9c62u9a51edd","1","601c0f63889d5f67eb49e823","26","04/1995","Single","Cantonese","English","Female","Asian","No","Undergraduate degree","No, currently not in school","N/A","N/A","N/A","7","9","6","1","0","0.5","stim/N000.jpg","65","76","0.516666666","3","2","4","","3","2","3","0","1","3","3","3","0","1","0","3","4","5","0","6","6","0","4","2","3","6","0","5","6","6","0","6","5","5","1","1","2","0","0","3","3","2","4","4","2","2","3","3","3","1","4","4","4","0","0","1","4","1","0","3","3","2","4","3","3","agree","290.89999997615814","","","","","","","","<div style=""font-size:60px;"">?</div>","76","37","1","0.8"
"image-keyboard-response","108","485409","0.0-11.0-0.37","ugc9c62u9a51edd","1","601c0f63889d5f67eb49e823","26","04/1995","Single","Cantonese","English","Female","Asian","No","Undergraduate degree","No, currently not in school","N/A","N/A","N/A","7","9","6","1","0","0.5","stim/N000.jpg","65","76","0.516666666","3","2","4","","3","2","3","0","1","3","3","3","0","1","0","3","4","5","0","6","6","0","4","2","3","6","0","5","6","6","0","6","5","5","1","1","2","0","0","3","3","2","4","4","2","2","3","3","3","1","4","4","4","0","0","1","4","1","0","3","3","2","4","3","3","agree","null","","","","","","","","stim/H100.jpg","null","","",""
"html-keyboard-response","109","486508","0.0-11.0-1.37","ugc9c62u9a51edd","1","601c0f63889d5f67eb49e823","26","04/1995","Single","Cantonese","English","Female","Asian","No","Undergraduate degree","No, currently not in school","N/A","N/A","N/A","7","9","6","1","0","0.5","stim/N000.jpg","65","76","0.516666666","3","2","4","","3","2","3","0","1","3","3","3","0","1","0","3","4","5","0","6","6","0","4","2","3","6","0","5","6","6","0","6","5","5","1","1","2","0","0","3","3","2","4","4","2","2","3","3","3","1","4","4","4","0","0","1","4","1","0","3","3","2","4","3","3","agree","1098.4000000059605","","","","","","","","<div style=""font-size:60px;"">?</div>","76","38","1","0.8"
"image-keyboard-response","110","487511","0.0-11.0-0.38","ugc9c62u9a51edd","1","601c0f63889d5f67eb49e823","26","04/1995","Single","Cantonese","English","Female","Asian","No","Undergraduate degree","No, currently not in school","N/A","N/A","N/A","7","9","6","1","0","0.5","stim/N000.jpg","65","76","0.516666666","3","2","4","","3","2","3","0","1","3","3","3","0","1","0","3","4","5","0","6","6","0","4","2","3","6","0","5","6","6","0","6","5","5","1","1","2","0","0","3","3","2","4","4","2","2","3","3","3","1","4","4","4","0","0","1","4","1","0","3","3","2","4","3","3","agree","null","","","","","","","","stim/H150.jpg","null","","",""
"html-keyboard-response","111","487759","0.0-11.0-1.38","ugc9c62u9a51edd","1","601c0f63889d5f67eb49e823","26","04/1995","Single","Cantonese","English","Female","Asian","No","Undergraduate degree","No, currently not in school","N/A","N/A","N/A","7","9","6","1","0","0.5","stim/N000.jpg","65","76","0.516666666","3","2","4","","3","2","3","0","1","3","3","3","0","1","0","3","4","5","0","6","6","0","4","2","3","6","0","5","6","6","0","6","5","5","1","1","2","0","0","3","3","2","4","4","2","2","3","3","3","1","4","4","4","0","0","1","4","1","0","3","3","2","4","3","3","agree","246.5","","","","","","","","<div style=""font-size:60px;"">?</div>","76","39","1","0.8"
"image-keyboard-response","112","488772","0.0-11.0-0.39","ugc9c62u9a51edd","1","601c0f63889d5f67eb49e823","26","04/1995","Single","Cantonese","English","Female","Asian","No","Undergraduate degree","No, currently not in school","N/A","N/A","N/A","7","9","6","1","0","0.5","stim/N000.jpg","65","76","0.516666666","3","2","4","","3","2","3","0","1","3","3","3","0","1","0","3","4","5","0","6","6","0","4","2","3","6","0","5","6","6","0","6","5","5","1","1","2","0","0","3","3","2","4","4","2","2","3","3","3","1","4","4","4","0","0","1","4","1","0","3","3","2","4","3","3","agree","null","","","","","","","","stim/T120.jpg","null","","",""
"html-keyboard-response","113","489037","0.0-11.0-1.39","ugc9c62u9a51edd","1","601c0f63889d5f67eb49e823","26","04/1995","Single","Cantonese","English","Female","Asian","No","Undergraduate degree","No, currently not in school","N/A","N/A","N/A","7","9","6","1","0","0.5","stim/N000.jpg","65","76","0.516666666","3","2","4","","3","2","3","0","1","3","3","3","0","1","0","3","4","5","0","6","6","0","4","2","3","6","0","5","6","6","0","6","5","5","1","1","2","0","0","3","3","2","4","4","2","2","3","3","3","1","4","4","4","0","0","1","4","1","0","3","3","2","4","3","3","agree","263.09999999403954","","","","","","","","<div style=""font-size:60px;"">?</div>","65","40","1","0.8"
"image-keyboard-response","114","490040","0.0-11.0-0.40","ugc9c62u9a51edd","1","601c0f63889d5f67eb49e823","26","04/1995","Single","Cantonese","English","Female","Asian","No","Undergraduate degree","No, currently not in school","N/A","N/A","N/A","7","9","6","1","0","0.5","stim/N000.jpg","65","76","0.516666666","3","2","4","","3","2","3","0","1","3","3","3","0","1","0","3","4","5","0","6","6","0","4","2","3","6","0","5","6","6","0","6","5","5","1","1","2","0","0","3","3","2","4","4","2","2","3","3","3","1","4","4","4","0","0","1","4","1","0","3","3","2","4","3","3","agree","null","","","","","","","","stim/H260.jpg","null","","",""
"html-keyboard-response","115","490242","0.0-11.0-1.40","ugc9c62u9a51edd","1","601c0f63889d5f67eb49e823","26","04/1995","Single","Cantonese","English","Female","Asian","No","Undergraduate degree","No, currently not in school","N/A","N/A","N/A","7","9","6","1","0","0.5","stim/N000.jpg","65","76","0.516666666","3","2","4","","3","2","3","0","1","3","3","3","0","1","0","3","4","5","0","6","6","0","4","2","3","6","0","5","6","6","0","6","5","5","1","1","2","0","0","3","3","2","4","4","2","2","3","3","3","1","4","4","4","0","0","1","4","1","0","3","3","2","4","3","3","agree","200.09999999403954","","","","","","","","<div style=""font-size:60px;"">?</div>","76","41","1","0.8"
"image-keyboard-response","116","491245","0.0-11.0-0.41","ugc9c62u9a51edd","1","601c0f63889d5f67eb49e823","26","04/1995","Single","Cantonese","English","Female","Asian","No","Undergraduate degree","No, currently not in school","N/A","N/A","N/A","7","9","6","1","0","0.5","stim/N000.jpg","65","76","0.516666666","3","2","4","","3","2","3","0","1","3","3","3","0","1","0","3","4","5","0","6","6","0","4","2","3","6","0","5","6","6","0","6","5","5","1","1","2","0","0","3","3","2","4","4","2","2","3","3","3","1","4","4","4","0","0","1","4","1","0","3","3","2","4","3","3","agree","null","","","","","","","","stim/T100.jpg","null","","",""
"html-keyboard-response","117","491285","0.0-11.0-1.41","ugc9c62u9a51edd","1","601c0f63889d5f67eb49e823","26","04/1995","Single","Cantonese","English","Female","Asian","No","Undergraduate degree","No, currently not in school","N/A","N/A","N/A","7","9","6","1","0","0.5","stim/N000.jpg","65","76","0.516666666","3","2","4","","3","2","3","0","1","3","3","3","0","1","0","3","4","5","0","6","6","0","4","2","3","6","0","5","6","6","0","6","5","5","1","1","2","0","0","3","3","2","4","4","2","2","3","3","3","1","4","4","4","0","0","1","4","1","0","3","3","2","4","3","3","agree","39.5","","","","","","","","<div style=""font-size:60px;"">?</div>","65","42","1","0.8"
"image-keyboard-response","118","492288","0.0-11.0-0.42","ugc9c62u9a51edd","1","601c0f63889d5f67eb49e823","26","04/1995","Single","Cantonese","English","Female","Asian","No","Undergraduate degree","No, currently not in school","N/A","N/A","N/A","7","9","6","1","0","0.5","stim/N000.jpg","65","76","0.516666666","3","2","4","","3","2","3","0","1","3","3","3","0","1","0","3","4","5","0","6","6","0","4","2","3","6","0","5","6","6","0","6","5","5","1","1","2","0","0","3","3","2","4","4","2","2","3","3","3","1","4","4","4","0","0","1","4","1","0","3","3","2","4","3","3","agree","null","","","","","","","","stim/H090.jpg","null","","",""
"html-keyboard-response","119","492489","0.0-11.0-1.42","ugc9c62u9a51edd","1","601c0f63889d5f67eb49e823","26","04/1995","Single","Cantonese","English","Female","Asian","No","Undergraduate degree","No, currently not in school","N/A","N/A","N/A","7","9","6","1","0","0.5","stim/N000.jpg","65","76","0.516666666","3","2","4","","3","2","3","0","1","3","3","3","0","1","0","3","4","5","0","6","6","0","4","2","3","6","0","5","6","6","0","6","5","5","1","1","2","0","0","3","3","2","4","4","2","2","3","3","3","1","4","4","4","0","0","1","4","1","0","3","3","2","4","3","3","agree","200.40000000596046","","","","","","","","<div style=""font-size:60px;"">?</div>","76","43","1","0.8"
"image-keyboard-response","120","493492","0.0-11.0-0.43","ugc9c62u9a51edd","1","601c0f63889d5f67eb49e823","26","04/1995","Single","Cantonese","English","Female","Asian","No","Undergraduate degree","No, currently not in school","N/A","N/A","N/A","7","9","6","1","0","0.5","stim/N000.jpg","65","76","0.516666666","3","2","4","","3","2","3","0","1","3","3","3","0","1","0","3","4","5","0","6","6","0","4","2","3","6","0","5","6","6","0","6","5","5","1","1","2","0","0","3","3","2","4","4","2","2","3","3","3","1","4","4","4","0","0","1","4","1","0","3","3","2","4","3","3","agree","null","","","","","","","","stim/H030.jpg","null","","",""
"html-keyboard-response","121","493787","0.0-11.0-1.43","ugc9c62u9a51edd","1","601c0f63889d5f67eb49e823","26","04/1995","Single","Cantonese","English","Female","Asian","No","Undergraduate degree","No, currently not in school","N/A","N/A","N/A","7","9","6","1","0","0.5","stim/N000.jpg","65","76","0.516666666","3","2","4","","3","2","3","0","1","3","3","3","0","1","0","3","4","5","0","6","6","0","4","2","3","6","0","5","6","6","0","6","5","5","1","1","2","0","0","3","3","2","4","4","2","2","3","3","3","1","4","4","4","0","0","1","4","1","0","3","3","2","4","3","3","agree","294.09999999403954","","","","","","","","<div style=""font-size:60px;"">?</div>","65","44","1","0.8"
"image-keyboard-response","122","494789","0.0-11.0-0.44","ugc9c62u9a51edd","1","601c0f63889d5f67eb49e823","26","04/1995","Single","Cantonese","English","Female","Asian","No","Undergraduate degree","No, currently not in school","N/A","N/A","N/A","7","9","6","1","0","0.5","stim/N000.jpg","65","76","0.516666666","3","2","4","","3","2","3","0","1","3","3","3","0","1","0","3","4","5","0","6","6","0","4","2","3","6","0","5","6","6","0","6","5","5","1","1","2","0","0","3","3","2","4","4","2","2","3","3","3","1","4","4","4","0","0","1","4","1","0","3","3","2","4","3","3","agree","null","","","","","","","","stim/H270.jpg","null","","",""
"html-keyboard-response","123","495037","0.0-11.0-1.44","ugc9c62u9a51edd","1","601c0f63889d5f67eb49e823","26","04/1995","Single","Cantonese","English","Female","Asian","No","Undergraduate degree","No, currently not in school","N/A","N/A","N/A","7","9","6","1","0","0.5","stim/N000.jpg","65","76","0.516666666","3","2","4","","3","2","3","0","1","3","3","3","0","1","0","3","4","5","0","6","6","0","4","2","3","6","0","5","6","6","0","6","5","5","1","1","2","0","0","3","3","2","4","4","2","2","3","3","3","1","4","4","4","0","0","1","4","1","0","3","3","2","4","3","3","agree","246.7999999821186","","","","","","","","<div style=""font-size:60px;"">?</div>","76","45","1","0.8"
"image-keyboard-response","124","496039","0.0-11.0-0.45","ugc9c62u9a51edd","1","601c0f63889d5f67eb49e823","26","04/1995","Single","Cantonese","English","Female","Asian","No","Undergraduate degree","No, currently not in school","N/A","N/A","N/A","7","9","6","1","0","0.5","stim/N000.jpg","65","76","0.516666666","3","2","4","","3","2","3","0","1","3","3","3","0","1","0","3","4","5","0","6","6","0","4","2","3","6","0","5","6","6","0","6","5","5","1","1","2","0","0","3","3","2","4","4","2","2","3","3","3","1","4","4","4","0","0","1","4","1","0","3","3","2","4","3","3","agree","null","","","","","","","","stim/H240.jpg","null","","",""
"html-keyboard-response","125","496274","0.0-11.0-1.45","ugc9c62u9a51edd","1","601c0f63889d5f67eb49e823","26","04/1995","Single","Cantonese","English","Female","Asian","No","Undergraduate degree","No, currently not in school","N/A","N/A","N/A","7","9","6","1","0","0.5","stim/N000.jpg","65","76","0.516666666","3","2","4","","3","2","3","0","1","3","3","3","0","1","0","3","4","5","0","6","6","0","4","2","3","6","0","5","6","6","0","6","5","5","1","1","2","0","0","3","3","2","4","4","2","2","3","3","3","1","4","4","4","0","0","1","4","1","0","3","3","2","4","3","3","agree","233.5","","","","","","","","<div style=""font-size:60px;"">?</div>","76","46","1","0.8"
"image-keyboard-response","126","497276","0.0-11.0-0.46","ugc9c62u9a51edd","1","601c0f63889d5f67eb49e823","26","04/1995","Single","Cantonese","English","Female","Asian","No","Undergraduate degree","No, currently not in school","N/A","N/A","N/A","7","9","6","1","0","0.5","stim/N000.jpg","65","76","0.516666666","3","2","4","","3","2","3","0","1","3","3","3","0","1","0","3","4","5","0","6","6","0","4","2","3","6","0","5","6","6","0","6","5","5","1","1","2","0","0","3","3","2","4","4","2","2","3","3","3","1","4","4","4","0","0","1","4","1","0","3","3","2","4","3","3","agree","null","","","","","","","","stim/H190.jpg","null","","",""
"html-keyboard-response","127","497536","0.0-11.0-1.46","ugc9c62u9a51edd","1","601c0f63889d5f67eb49e823","26","04/1995","Single","Cantonese","English","Female","Asian","No","Undergraduate degree","No, currently not in school","N/A","N/A","N/A","7","9","6","1","0","0.5","stim/N000.jpg","65","76","0.516666666","3","2","4","","3","2","3","0","1","3","3","3","0","1","0","3","4","5","0","6","6","0","4","2","3","6","0","5","6","6","0","6","5","5","1","1","2","0","0","3","3","2","4","4","2","2","3","3","3","1","4","4","4","0","0","1","4","1","0","3","3","2","4","3","3","agree","255.30000001192093","","","","","","","","<div style=""font-size:60px;"">?</div>","76","47","1","0.8"
"image-keyboard-response","128","498540","0.0-11.0-0.47","ugc9c62u9a51edd","1","601c0f63889d5f67eb49e823","26","04/1995","Single","Cantonese","English","Female","Asian","No","Undergraduate degree","No, currently not in school","N/A","N/A","N/A","7","9","6","1","0","0.5","stim/N000.jpg","65","76","0.516666666","3","2","4","","3","2","3","0","1","3","3","3","0","1","0","3","4","5","0","6","6","0","4","2","3","6","0","5","6","6","0","6","5","5","1","1","2","0","0","3","3","2","4","4","2","2","3","3","3","1","4","4","4","0","0","1","4","1","0","3","3","2","4","3","3","agree","null","","","","","","","","stim/H080.jpg","null","","",""
"html-keyboard-response","129","498882","0.0-11.0-1.47","ugc9c62u9a51edd","1","601c0f63889d5f67eb49e823","26","04/1995","Single","Cantonese","English","Female","Asian","No","Undergraduate degree","No, currently not in school","N/A","N/A","N/A","7","9","6","1","0","0.5","stim/N000.jpg","65","76","0.516666666","3","2","4","","3","2","3","0","1","3","3","3","0","1","0","3","4","5","0","6","6","0","4","2","3","6","0","5","6","6","0","6","5","5","1","1","2","0","0","3","3","2","4","4","2","2","3","3","3","1","4","4","4","0","0","1","4","1","0","3","3","2","4","3","3","agree","341.5","","","","","","","","<div style=""font-size:60px;"">?</div>","76","48","1","0.8"
"image-keyboard-response","130","499892","0.0-11.0-0.48","ugc9c62u9a51edd","1","601c0f63889d5f67eb49e823","26","04/1995","Single","Cantonese","English","Female","Asian","No","Undergraduate degree","No, currently not in school","N/A","N/A","N/A","7","9","6","1","0","0.5","stim/N000.jpg","65","76","0.516666666","3","2","4","","3","2","3","0","1","3","3","3","0","1","0","3","4","5","0","6","6","0","4","2","3","6","0","5","6","6","0","6","5","5","1","1","2","0","0","3","3","2","4","4","2","2","3","3","3","1","4","4","4","0","0","1","4","1","0","3","3","2","4","3","3","agree","null","","","","","","","","stim/H130.jpg","null","","",""
"html-keyboard-response","131","500132","0.0-11.0-1.48","ugc9c62u9a51edd","1","601c0f63889d5f67eb49e823","26","04/1995","Single","Cantonese","English","Female","Asian","No","Undergraduate degree","No, currently not in school","N/A","N/A","N/A","7","9","6","1","0","0.5","stim/N000.jpg","65","76","0.516666666","3","2","4","","3","2","3","0","1","3","3","3","0","1","0","3","4","5","0","6","6","0","4","2","3","6","0","5","6","6","0","6","5","5","1","1","2","0","0","3","3","2","4","4","2","2","3","3","3","1","4","4","4","0","0","1","4","1","0","3","3","2","4","3","3","agree","239.59999999403954","","","","","","","","<div style=""font-size:60px;"">?</div>","76","49","1","0.8"
"image-keyboard-response","132","501135","0.0-11.0-0.49","ugc9c62u9a51edd","1","601c0f63889d5f67eb49e823","26","04/1995","Single","Cantonese","English","Female","Asian","No","Undergraduate degree","No, currently not in school","N/A","N/A","N/A","7","9","6","1","0","0.5","stim/N000.jpg","65","76","0.516666666","3","2","4","","3","2","3","0","1","3","3","3","0","1","0","3","4","5","0","6","6","0","4","2","3","6","0","5","6","6","0","6","5","5","1","1","2","0","0","3","3","2","4","4","2","2","3","3","3","1","4","4","4","0","0","1","4","1","0","3","3","2","4","3","3","agree","null","","","","","","","","stim/H150.jpg","null","","",""
"html-keyboard-response","133","501370","0.0-11.0-1.49","ugc9c62u9a51edd","1","601c0f63889d5f67eb49e823","26","04/1995","Single","Cantonese","English","Female","Asian","No","Undergraduate degree","No, currently not in school","N/A","N/A","N/A","7","9","6","1","0","0.5","stim/N000.jpg","65","76","0.516666666","3","2","4","","3","2","3","0","1","3","3","3","0","1","0","3","4","5","0","6","6","0","4","2","3","6","0","5","6","6","0","6","5","5","1","1","2","0","0","3","3","2","4","4","2","2","3","3","3","1","4","4","4","0","0","1","4","1","0","3","3","2","4","3","3","agree","234","","","","","","","","<div style=""font-size:60px;"">?</div>","76","50","1","0.8"
"html-keyboard-response","134","520411","0.0-12.0","ugc9c62u9a51edd","1","601c0f63889d5f67eb49e823","26","04/1995","Single","Cantonese","English","Female","Asian","No","Undergraduate degree","No, currently not in school","N/A","N/A","N/A","7","9","6","1","0","0.5","stim/N000.jpg","65","76","0.516666666","3","2","4","","3","2","3","0","1","3","3","3","0","1","0","3","4","5","0","6","6","0","4","2","3","6","0","5","6","6","0","6","5","5","1","1","2","0","0","3","3","2","4","4","2","2","3","3","3","1","4","4","4","0","0","1","4","1","0","3","3","2","4","3","3","agree","18537.70000001788","","","","","","","","<p>Block 2</p><p>Press SPACE to continue.</p>","32","","",""
"image-keyboard-response","135","521918","0.0-13.0-0.0","ugc9c62u9a51edd","1","601c0f63889d5f67eb49e823","26","04/1995","Single","Cantonese","English","Female","Asian","No","Undergraduate degree","No, currently not in school","N/A","N/A","N/A","7","9","6","1","0","0.5","stim/N000.jpg","65","76","0.516666666","3","2","4","","3","2","3","0","1","3","3","3","0","1","0","3","4","5","0","6","6","0","4","2","3","6","0","5","6","6","0","6","5","5","1","1","2","0","0","3","3","2","4","4","2","2","3","3","3","1","4","4","4","0","0","1","4","1","0","3","3","2","4","3","3","agree","null","","","","","","","","stim/T230.jpg","null","","",""
"html-keyboard-response","136","522594","0.0-13.0-1.0","ugc9c62u9a51edd","1","601c0f63889d5f67eb49e823","26","04/1995","Single","Cantonese","English","Female","Asian","No","Undergraduate degree","No, currently not in school","N/A","N/A","N/A","7","9","6","1","0","0.5","stim/N000.jpg","65","76","0.516666666","3","2","4","","3","2","3","0","1","3","3","3","0","1","0","3","4","5","0","6","6","0","4","2","3","6","0","5","6","6","0","6","5","5","1","1","2","0","0","3","3","2","4","4","2","2","3","3","3","1","4","4","4","0","0","1","4","1","0","3","3","2","4","3","3","agree","674.7999999821186","","","","","","","","<div style=""font-size:60px;"">?</div>","65","1","2","0.8"
"image-keyboard-response","137","523598","0.0-13.0-0.1","ugc9c62u9a51edd","1","601c0f63889d5f67eb49e823","26","04/1995","Single","Cantonese","English","Female","Asian","No","Undergraduate degree","No, currently not in school","N/A","N/A","N/A","7","9","6","1","0","0.5","stim/N000.jpg","65","76","0.516666666","3","2","4","","3","2","3","0","1","3","3","3","0","1","0","3","4","5","0","6","6","0","4","2","3","6","0","5","6","6","0","6","5","5","1","1","2","0","0","3","3","2","4","4","2","2","3","3","3","1","4","4","4","0","0","1","4","1","0","3","3","2","4","3","3","agree","null","","","","","","","","stim/T220.jpg","null","","",""
"html-keyboard-response","138","524512","0.0-13.0-1.1","ugc9c62u9a51edd","1","601c0f63889d5f67eb49e823","26","04/1995","Single","Cantonese","English","Female","Asian","No","Undergraduate degree","No, currently not in school","N/A","N/A","N/A","7","9","6","1","0","0.5","stim/N000.jpg","65","76","0.516666666","3","2","4","","3","2","3","0","1","3","3","3","0","1","0","3","4","5","0","6","6","0","4","2","3","6","0","5","6","6","0","6","5","5","1","1","2","0","0","3","3","2","4","4","2","2","3","3","3","1","4","4","4","0","0","1","4","1","0","3","3","2","4","3","3","agree","913.5","","","","","","","","<div style=""font-size:60px;"">?</div>","65","2","2","0.8"
"image-keyboard-response","139","525516","0.0-13.0-0.2","ugc9c62u9a51edd","1","601c0f63889d5f67eb49e823","26","04/1995","Single","Cantonese","English","Female","Asian","No","Undergraduate degree","No, currently not in school","N/A","N/A","N/A","7","9","6","1","0","0.5","stim/N000.jpg","65","76","0.516666666","3","2","4","","3","2","3","0","1","3","3","3","0","1","0","3","4","5","0","6","6","0","4","2","3","6","0","5","6","6","0","6","5","5","1","1","2","0","0","3","3","2","4","4","2","2","3","3","3","1","4","4","4","0","0","1","4","1","0","3","3","2","4","3","3","agree","null","","","","","","","","stim/H240.jpg","null","","",""
"html-keyboard-response","140","525807","0.0-13.0-1.2","ugc9c62u9a51edd","1","601c0f63889d5f67eb49e823","26","04/1995","Single","Cantonese","English","Female","Asian","No","Undergraduate degree","No, currently not in school","N/A","N/A","N/A","7","9","6","1","0","0.5","stim/N000.jpg","65","76","0.516666666","3","2","4","","3","2","3","0","1","3","3","3","0","1","0","3","4","5","0","6","6","0","4","2","3","6","0","5","6","6","0","6","5","5","1","1","2","0","0","3","3","2","4","4","2","2","3","3","3","1","4","4","4","0","0","1","4","1","0","3","3","2","4","3","3","agree","290.2999999821186","","","","","","","","<div style=""font-size:60px;"">?</div>","76","3","2","0.8"
"image-keyboard-response","141","526811","0.0-13.0-0.3","ugc9c62u9a51edd","1","601c0f63889d5f67eb49e823","26","04/1995","Single","Cantonese","English","Female","Asian","No","Undergraduate degree","No, currently not in school","N/A","N/A","N/A","7","9","6","1","0","0.5","stim/N000.jpg","65","76","0.516666666","3","2","4","","3","2","3","0","1","3","3","3","0","1","0","3","4","5","0","6","6","0","4","2","3","6","0","5","6","6","0","6","5","5","1","1","2","0","0","3","3","2","4","4","2","2","3","3","3","1","4","4","4","0","0","1","4","1","0","3","3","2","4","3","3","agree","null","","","","","","","","stim/H060.jpg","null","","",""
"html-keyboard-response","142","527115","0.0-13.0-1.3","ugc9c62u9a51edd","1","601c0f63889d5f67eb49e823","26","04/1995","Single","Cantonese","English","Female","Asian","No","Undergraduate degree","No, currently not in school","N/A","N/A","N/A","7","9","6","1","0","0.5","stim/N000.jpg","65","76","0.516666666","3","2","4","","3","2","3","0","1","3","3","3","0","1","0","3","4","5","0","6","6","0","4","2","3","6","0","5","6","6","0","6","5","5","1","1","2","0","0","3","3","2","4","4","2","2","3","3","3","1","4","4","4","0","0","1","4","1","0","3","3","2","4","3","3","agree","303.19999998807907","","","","","","","","<div style=""font-size:60px;"">?</div>","65","4","2","0.8"
"image-keyboard-response","143","528117","0.0-13.0-0.4","ugc9c62u9a51edd","1","601c0f63889d5f67eb49e823","26","04/1995","Single","Cantonese","English","Female","Asian","No","Undergraduate degree","No, currently not in school","N/A","N/A","N/A","7","9","6","1","0","0.5","stim/N000.jpg","65","76","0.516666666","3","2","4","","3","2","3","0","1","3","3","3","0","1","0","3","4","5","0","6","6","0","4","2","3","6","0","5","6","6","0","6","5","5","1","1","2","0","0","3","3","2","4","4","2","2","3","3","3","1","4","4","4","0","0","1","4","1","0","3","3","2","4","3","3","agree","null","","","","","","","","stim/T250.jpg","null","","",""
"html-keyboard-response","144","528312","0.0-13.0-1.4","ugc9c62u9a51edd","1","601c0f63889d5f67eb49e823","26","04/1995","Single","Cantonese","English","Female","Asian","No","Undergraduate degree","No, currently not in school","N/A","N/A","N/A","7","9","6","1","0","0.5","stim/N000.jpg","65","76","0.516666666","3","2","4","","3","2","3","0","1","3","3","3","0","1","0","3","4","5","0","6","6","0","4","2","3","6","0","5","6","6","0","6","5","5","1","1","2","0","0","3","3","2","4","4","2","2","3","3","3","1","4","4","4","0","0","1","4","1","0","3","3","2","4","3","3","agree","193.89999997615814","","","","","","","","<div style=""font-size:60px;"">?</div>","65","5","2","0.8"
"image-keyboard-response","145","529315","0.0-13.0-0.5","ugc9c62u9a51edd","1","601c0f63889d5f67eb49e823","26","04/1995","Single","Cantonese","English","Female","Asian","No","Undergraduate degree","No, currently not in school","N/A","N/A","N/A","7","9","6","1","0","0.5","stim/N000.jpg","65","76","0.516666666","3","2","4","","3","2","3","0","1","3","3","3","0","1","0","3","4","5","0","6","6","0","4","2","3","6","0","5","6","6","0","6","5","5","1","1","2","0","0","3","3","2","4","4","2","2","3","3","3","1","4","4","4","0","0","1","4","1","0","3","3","2","4","3","3","agree","null","","","","","","","","stim/H080.jpg","null","","",""
"html-keyboard-response","146","529864","0.0-13.0-1.5","ugc9c62u9a51edd","1","601c0f63889d5f67eb49e823","26","04/1995","Single","Cantonese","English","Female","Asian","No","Undergraduate degree","No, currently not in school","N/A","N/A","N/A","7","9","6","1","0","0.5","stim/N000.jpg","65","76","0.516666666","3","2","4","","3","2","3","0","1","3","3","3","0","1","0","3","4","5","0","6","6","0","4","2","3","6","0","5","6","6","0","6","5","5","1","1","2","0","0","3","3","2","4","4","2","2","3","3","3","1","4","4","4","0","0","1","4","1","0","3","3","2","4","3","3","agree","548.5","","","","","","","","<div style=""font-size:60px;"">?</div>","76","6","2","0.8"
"image-keyboard-response","147","530871","0.0-13.0-0.6","ugc9c62u9a51edd","1","601c0f63889d5f67eb49e823","26","04/1995","Single","Cantonese","English","Female","Asian","No","Undergraduate degree","No, currently not in school","N/A","N/A","N/A","7","9","6","1","0","0.5","stim/N000.jpg","65","76","0.516666666","3","2","4","","3","2","3","0","1","3","3","3","0","1","0","3","4","5","0","6","6","0","4","2","3","6","0","5","6","6","0","6","5","5","1","1","2","0","0","3","3","2","4","4","2","2","3","3","3","1","4","4","4","0","0","1","4","1","0","3","3","2","4","3","3","agree","null","","","","","","","","stim/H280.jpg","null","","",""
"html-keyboard-response","148","531091","0.0-13.0-1.6","ugc9c62u9a51edd","1","601c0f63889d5f67eb49e823","26","04/1995","Single","Cantonese","English","Female","Asian","No","Undergraduate degree","No, currently not in school","N/A","N/A","N/A","7","9","6","1","0","0.5","stim/N000.jpg","65","76","0.516666666","3","2","4","","3","2","3","0","1","3","3","3","0","1","0","3","4","5","0","6","6","0","4","2","3","6","0","5","6","6","0","6","5","5","1","1","2","0","0","3","3","2","4","4","2","2","3","3","3","1","4","4","4","0","0","1","4","1","0","3","3","2","4","3","3","agree","219.5","","","","","","","","<div style=""font-size:60px;"">?</div>","76","7","2","0.8"
