"trial_type","trial_index","time_elapsed","internal_node_id","subject","condition","ID","age","dob","marital","natlang","olang","gender","ethnicity","mental_check","educ_l","educ_c","mental","mentdrug","mentpos","sesparent","sesstudent","sesladder","educ_hs","educ_ce","s1self","chosenbody","s1selfjudge","s2selfjudge","s2self","sspc_01","sspc_02","pas_01","pas_02","pas_03","pas_04","pas_05","pas_06","pas_07","pas_08","pas_09","pas_10","pas_11","pas_12","pas_13","pas_14","contact_01","contact_02","contact_03","contact_04","contact_05","contact_06","contact_07","contact_08","contact_09","idnd_01","idnd_02","idnd_03","idnd_04","idnd_05","idnd_06","idnd_07","idnd_08","catch_01","adig_01","adig_02","adig_03","plcs_01","plcs_02","plcs_03","plcs_04","plcs_05","plcs_06","plcs_07","plcs_08","plcs_09","plcs_10","plcs_11","plcs_12","catch_02","wwwp_01","wwwp_02","wwwp_03","wwwp_04","wwwp_05","wwwp_06","wwwp_07","wwwp_08","wwwp_09","lsns_fam_1","lsns_fam_2","lsns_fam_3","lsns_fri_1","lsns_fri_2","lsns_fri_3","debrief","rt","url","success","view_history","responses","question_order","final_value","start_value","stimulus","key_press","trial","block","freq"
"pavlovia","0","9","0.0-0.0","bcrgq9h6dd8dpnq","1","6127bfccad93004b373846e9","27","07/1994","Single","English","A little bit of French","Male","White or Caucasian","No","Undergraduate degree","No, currently not in school","N/A","N/A","N/A","4","3","2","2","","0.83333334","stim/H200.jpg","76","76","0.900000004","4","1","4","","4","4","4","0","2","3","3","4","0","0","0","0","6","6","0","6","6","0","10","2","3","6","1","5","5","5","1","5","5","5","1","1","2","0","5","3","3","3","0","5","0","3","3","0","3","1","6","3","3","0","3","3","6","6","0","3","3","1","2","2","2","agree","","","","","","","","","","","","",""
"external-html","1","37389","0.0-1.0","bcrgq9h6dd8dpnq","1","6127bfccad93004b373846e9","27","07/1994","Single","English","A little bit of French","Male","White or Caucasian","No","Undergraduate degree","No, currently not in school","N/A","N/A","N/A","4","3","2","2","","0.83333334","stim/H200.jpg","76","76","0.900000004","4","1","4","","4","4","4","0","2","3","3","4","0","0","0","0","6","6","0","6","6","0","10","2","3","6","1","5","5","5","1","5","5","5","1","1","2","0","5","3","3","3","0","5","0","3","3","0","3","1","6","3","3","0","3","3","6","6","0","3","3","1","2","2","2","agree","37252","sub/html/consent.html","","","","","","","","","","",""
"fullscreen","2","41815","0.0-2.0","bcrgq9h6dd8dpnq","1","6127bfccad93004b373846e9","27","07/1994","Single","English","A little bit of French","Male","White or Caucasian","No","Undergraduate degree","No, currently not in school","N/A","N/A","N/A","4","3","2","2","","0.83333334","stim/H200.jpg","76","76","0.900000004","4","1","4","","4","4","4","0","2","3","3","4","0","0","0","0","6","6","0","6","6","0","10","2","3","6","1","5","5","5","1","5","5","5","1","1","2","0","5","3","3","3","0","5","0","3","3","0","3","1","6","3","3","0","3","3","6","6","0","3","3","1","2","2","2","agree","","","true","","","","","","","","","",""
"instructions","3","63042","0.0-3.0","bcrgq9h6dd8dpnq","1","6127bfccad93004b373846e9","27","07/1994","Single","English","A little bit of French","Male","White or Caucasian","No","Undergraduate degree","No, currently not in school","N/A","N/A","N/A","4","3","2","2","","0.83333334","stim/H200.jpg","76","76","0.900000004","4","1","4","","4","4","4","0","2","3","3","4","0","0","0","0","6","6","0","6","6","0","10","2","3","6","1","5","5","5","1","5","5","5","1","1","2","0","5","3","3","3","0","5","0","3","3","0","3","1","6","3","3","0","3","3","6","6","0","3","3","1","2","2","2","agree","21227","","","[{""page_index"":0,""viewing_time"":5594},{""page_index"":1,""viewing_time"":15633}]","","","","","","","","",""
"survey-text","4","134762","0.0-4.0-0.0","bcrgq9h6dd8dpnq","1","6127bfccad93004b373846e9","27","07/1994","Single","English","A little bit of French","Male","White or Caucasian","No","Undergraduate degree","No, currently not in school","N/A","N/A","N/A","4","3","2","2","","0.83333334","stim/H200.jpg","76","76","0.900000004","4","1","4","","4","4","4","0","2","3","3","4","0","0","0","0","6","6","0","6","6","0","10","2","3","6","1","5","5","5","1","5","5","5","1","1","2","0","5","3","3","3","0","5","0","3","3","0","3","1","6","3","3","0","3","3","6","6","0","3","3","1","2","2","2","agree","71715","","","","{""ID"":""6127bfccad93004b373846e9"",""age"":""27"",""dob"":""07/1994"",""marital"":""Single"",""natlang"":""English"",""olang"":""A little bit of French""}","","","","","","","",""
"survey-multi-choice","5","154765","0.0-4.0-1.0","bcrgq9h6dd8dpnq","1","6127bfccad93004b373846e9","27","07/1994","Single","English","A little bit of French","Male","White or Caucasian","No","Undergraduate degree","No, currently not in school","N/A","N/A","N/A","4","3","2","2","","0.83333334","stim/H200.jpg","76","76","0.900000004","4","1","4","","4","4","4","0","2","3","3","4","0","0","0","0","6","6","0","6","6","0","10","2","3","6","1","5","5","5","1","5","5","5","1","1","2","0","5","3","3","3","0","5","0","3","3","0","3","1","6","3","3","0","3","3","6","6","0","3","3","1","2","2","2","agree","20001","","","","{""gender"":""Male"",""ethnicity"":""White or Caucasian"",""mental_check"":""No"",""educ_l"":""Undergraduate degree"",""educ_c"":""No, currently not in school""}","[0,1,2,3,4]","","","","","","",""
"survey-text","6","198732","0.0-4.0-2.0","bcrgq9h6dd8dpnq","1","6127bfccad93004b373846e9","27","07/1994","Single","English","A little bit of French","Male","White or Caucasian","No","Undergraduate degree","No, currently not in school","N/A","N/A","N/A","4","3","2","2","","0.83333334","stim/H200.jpg","76","76","0.900000004","4","1","4","","4","4","4","0","2","3","3","4","0","0","0","0","6","6","0","6","6","0","10","2","3","6","1","5","5","5","1","5","5","5","1","1","2","0","5","3","3","3","0","5","0","3","3","0","3","1","6","3","3","0","3","3","6","6","0","3","3","1","2","2","2","agree","43963","","","","{""mental"":""N/A"",""mentdrug"":""N/A"",""mentpos"":""N/A""}","","","","","","","",""
"survey-likert","7","239775","0.0-4.0-3.0","bcrgq9h6dd8dpnq","1","6127bfccad93004b373846e9","27","07/1994","Single","English","A little bit of French","Male","White or Caucasian","No","Undergraduate degree","No, currently not in school","N/A","N/A","N/A","4","3","2","2","","0.83333334","stim/H200.jpg","76","76","0.900000004","4","1","4","","4","4","4","0","2","3","3","4","0","0","0","0","6","6","0","6","6","0","10","2","3","6","1","5","5","5","1","5","5","5","1","1","2","0","5","3","3","3","0","5","0","3","3","0","3","1","6","3","3","0","3","3","6","6","0","3","3","1","2","2","2","agree","41042","","","","{""sesparent"":4,""sesstudent"":3,""sesladder"":2}","[0,1,2]","","","","","","",""
"survey-likert","8","265748","0.0-4.0-4.0","bcrgq9h6dd8dpnq","1","6127bfccad93004b373846e9","27","07/1994","Single","English","A little bit of French","Male","White or Caucasian","No","Undergraduate degree","No, currently not in school","N/A","N/A","N/A","4","3","2","2","","0.83333334","stim/H200.jpg","76","76","0.900000004","4","1","4","","4","4","4","0","2","3","3","4","0","0","0","0","6","6","0","6","6","0","10","2","3","6","1","5","5","5","1","5","5","5","1","1","2","0","5","3","3","3","0","5","0","3","3","0","3","1","6","3","3","0","3","3","6","6","0","3","3","1","2","2","2","agree","25970","","","","{""educ_hs"":1,""educ_ce"":2}","[0,1]","","","","","","",""
"reconstruction","9","296244","0.0-5.0","bcrgq9h6dd8dpnq","1","6127bfccad93004b373846e9","27","07/1994","Single","English","A little bit of French","Male","White or Caucasian","No","Undergraduate degree","No, currently not in school","N/A","N/A","N/A","4","3","2","2","","0.83333334","stim/H200.jpg","76","76","0.900000004","4","1","4","","4","4","4","0","2","3","3","4","0","0","0","0","6","6","0","6","6","0","10","2","3","6","1","5","5","5","1","5","5","5","1","1","2","0","5","3","3","3","0","5","0","3","3","0","3","1","6","3","3","0","3","3","6","6","0","3","3","1","2","2","2","agree","30494","","","","","","0.83333334","0.5","","","","",""
"image-keyboard-response","10","341230","0.0-6.0","bcrgq9h6dd8dpnq","1","6127bfccad93004b373846e9","27","07/1994","Single","English","A little bit of French","Male","White or Caucasian","No","Undergraduate degree","No, currently not in school","N/A","N/A","N/A","4","3","2","2","","0.83333334","stim/H200.jpg","76","76","0.900000004","4","1","4","","4","4","4","0","2","3","3","4","0","0","0","0","6","6","0","6","6","0","10","2","3","6","1","5","5","5","1","5","5","5","1","1","2","0","5","3","3","3","0","5","0","3","3","0","3","1","6","3","3","0","3","3","6","6","0","3","3","1","2","2","2","agree","44985","","","","","","","","stim/H200.jpg","76","","",""
"instructions","11","385515","0.0-7.0","bcrgq9h6dd8dpnq","1","6127bfccad93004b373846e9","27","07/1994","Single","English","A little bit of French","Male","White or Caucasian","No","Undergraduate degree","No, currently not in school","N/A","N/A","N/A","4","3","2","2","","0.83333334","stim/H200.jpg","76","76","0.900000004","4","1","4","","4","4","4","0","2","3","3","4","0","0","0","0","6","6","0","6","6","0","10","2","3","6","1","5","5","5","1","5","5","5","1","1","2","0","5","3","3","3","0","5","0","3","3","0","3","1","6","3","3","0","3","3","6","6","0","3","3","1","2","2","2","agree","44283","","","[{""page_index"":0,""viewing_time"":2130},{""page_index"":1,""viewing_time"":8500},{""page_index"":2,""viewing_time"":4863},{""page_index"":3,""viewing_time"":2836},{""page_index"":2,""viewing_time"":4856},{""page_index"":3,""viewing_time"":6088},{""page_index"":4,""viewing_time"":4221},{""page_index"":5,""viewing_time"":7272},{""page_index"":6,""viewing_time"":3517}]","","","","","","","","",""
"image-keyboard-response","12","386019","0.0-8.0-0.0","bcrgq9h6dd8dpnq","1","6127bfccad93004b373846e9","27","07/1994","Single","English","A little bit of French","Male","White or Caucasian","No","Undergraduate degree","No, currently not in school","N/A","N/A","N/A","4","3","2","2","","0.83333334","stim/H200.jpg","76","76","0.900000004","4","1","4","","4","4","4","0","2","3","3","4","0","0","0","0","6","6","0","6","6","0","10","2","3","6","1","5","5","5","1","5","5","5","1","1","2","0","5","3","3","3","0","5","0","3","3","0","3","1","6","3","3","0","3","3","6","6","0","3","3","1","2","2","2","agree","null","","","","","","","","stim/H130.jpg","null","","",""
"html-keyboard-response","13","390243","0.0-8.0-1.0","bcrgq9h6dd8dpnq","1","6127bfccad93004b373846e9","27","07/1994","Single","English","A little bit of French","Male","White or Caucasian","No","Undergraduate degree","No, currently not in school","N/A","N/A","N/A","4","3","2","2","","0.83333334","stim/H200.jpg","76","76","0.900000004","4","1","4","","4","4","4","0","2","3","3","4","0","0","0","0","6","6","0","6","6","0","10","2","3","6","1","5","5","5","1","5","5","5","1","1","2","0","5","3","3","3","0","5","0","3","3","0","3","1","6","3","3","0","3","3","6","6","0","3","3","1","2","2","2","agree","4224","","","","","","","","<div style=""font-size:60px;"">?</div>","76","1","Practice","0.5"
"image-keyboard-response","14","391267","0.0-8.0-0.1","bcrgq9h6dd8dpnq","1","6127bfccad93004b373846e9","27","07/1994","Single","English","A little bit of French","Male","White or Caucasian","No","Undergraduate degree","No, currently not in school","N/A","N/A","N/A","4","3","2","2","","0.83333334","stim/H200.jpg","76","76","0.900000004","4","1","4","","4","4","4","0","2","3","3","4","0","0","0","0","6","6","0","6","6","0","10","2","3","6","1","5","5","5","1","5","5","5","1","1","2","0","5","3","3","3","0","5","0","3","3","0","3","1","6","3","3","0","3","3","6","6","0","3","3","1","2","2","2","agree","null","","","","","","","","stim/T110.jpg","null","","",""
"html-keyboard-response","15","393970","0.0-8.0-1.1","bcrgq9h6dd8dpnq","1","6127bfccad93004b373846e9","27","07/1994","Single","English","A little bit of French","Male","White or Caucasian","No","Undergraduate degree","No, currently not in school","N/A","N/A","N/A","4","3","2","2","","0.83333334","stim/H200.jpg","76","76","0.900000004","4","1","4","","4","4","4","0","2","3","3","4","0","0","0","0","6","6","0","6","6","0","10","2","3","6","1","5","5","5","1","5","5","5","1","1","2","0","5","3","3","3","0","5","0","3","3","0","3","1","6","3","3","0","3","3","6","6","0","3","3","1","2","2","2","agree","2702","","","","","","","","<div style=""font-size:60px;"">?</div>","65","2","Practice","0.5"
"image-keyboard-response","16","394994","0.0-8.0-0.2","bcrgq9h6dd8dpnq","1","6127bfccad93004b373846e9","27","07/1994","Single","English","A little bit of French","Male","White or Caucasian","No","Undergraduate degree","No, currently not in school","N/A","N/A","N/A","4","3","2","2","","0.83333334","stim/H200.jpg","76","76","0.900000004","4","1","4","","4","4","4","0","2","3","3","4","0","0","0","0","6","6","0","6","6","0","10","2","3","6","1","5","5","5","1","5","5","5","1","1","2","0","5","3","3","3","0","5","0","3","3","0","3","1","6","3","3","0","3","3","6","6","0","3","3","1","2","2","2","agree","null","","","","","","","","stim/T180.jpg","null","","",""
"html-keyboard-response","17","395501","0.0-8.0-1.2","bcrgq9h6dd8dpnq","1","6127bfccad93004b373846e9","27","07/1994","Single","English","A little bit of French","Male","White or Caucasian","No","Undergraduate degree","No, currently not in school","N/A","N/A","N/A","4","3","2","2","","0.83333334","stim/H200.jpg","76","76","0.900000004","4","1","4","","4","4","4","0","2","3","3","4","0","0","0","0","6","6","0","6","6","0","10","2","3","6","1","5","5","5","1","5","5","5","1","1","2","0","5","3","3","3","0","5","0","3","3","0","3","1","6","3","3","0","3","3","6","6","0","3","3","1","2","2","2","agree","507","","","","","","","","<div style=""font-size:60px;"">?</div>","65","3","Practice","0.5"
"image-keyboard-response","18","396528","0.0-8.0-0.3","bcrgq9h6dd8dpnq","1","6127bfccad93004b373846e9","27","07/1994","Single","English","A little bit of French","Male","White or Caucasian","No","Undergraduate degree","No, currently not in school","N/A","N/A","N/A","4","3","2","2","","0.83333334","stim/H200.jpg","76","76","0.900000004","4","1","4","","4","4","4","0","2","3","3","4","0","0","0","0","6","6","0","6","6","0","10","2","3","6","1","5","5","5","1","5","5","5","1","1","2","0","5","3","3","3","0","5","0","3","3","0","3","1","6","3","3","0","3","3","6","6","0","3","3","1","2","2","2","agree","null","","","","","","","","stim/T260.jpg","null","","",""
"html-keyboard-response","19","396735","0.0-8.0-1.3","bcrgq9h6dd8dpnq","1","6127bfccad93004b373846e9","27","07/1994","Single","English","A little bit of French","Male","White or Caucasian","No","Undergraduate degree","No, currently not in school","N/A","N/A","N/A","4","3","2","2","","0.83333334","stim/H200.jpg","76","76","0.900000004","4","1","4","","4","4","4","0","2","3","3","4","0","0","0","0","6","6","0","6","6","0","10","2","3","6","1","5","5","5","1","5","5","5","1","1","2","0","5","3","3","3","0","5","0","3","3","0","3","1","6","3","3","0","3","3","6","6","0","3","3","1","2","2","2","agree","207","","","","","","","","<div style=""font-size:60px;"">?</div>","65","4","Practice","0.5"
"image-keyboard-response","20","397751","0.0-8.0-0.4","bcrgq9h6dd8dpnq","1","6127bfccad93004b373846e9","27","07/1994","Single","English","A little bit of French","Male","White or Caucasian","No","Undergraduate degree","No, currently not in school","N/A","N/A","N/A","4","3","2","2","","0.83333334","stim/H200.jpg","76","76","0.900000004","4","1","4","","4","4","4","0","2","3","3","4","0","0","0","0","6","6","0","6","6","0","10","2","3","6","1","5","5","5","1","5","5","5","1","1","2","0","5","3","3","3","0","5","0","3","3","0","3","1","6","3","3","0","3","3","6","6","0","3","3","1","2","2","2","agree","null","","","","","","","","stim/H100.jpg","null","","",""
"html-keyboard-response","21","397861","0.0-8.0-1.4","bcrgq9h6dd8dpnq","1","6127bfccad93004b373846e9","27","07/1994","Single","English","A little bit of French","Male","White or Caucasian","No","Undergraduate degree","No, currently not in school","N/A","N/A","N/A","4","3","2","2","","0.83333334","stim/H200.jpg","76","76","0.900000004","4","1","4","","4","4","4","0","2","3","3","4","0","0","0","0","6","6","0","6","6","0","10","2","3","6","1","5","5","5","1","5","5","5","1","1","2","0","5","3","3","3","0","5","0","3","3","0","3","1","6","3","3","0","3","3","6","6","0","3","3","1","2","2","2","agree","109","","","","","","","","<div style=""font-size:60px;"">?</div>","76","5","Practice","0.5"
"image-keyboard-response","22","398882","0.0-8.0-0.5","bcrgq9h6dd8dpnq","1","6127bfccad93004b373846e9","27","07/1994","Single","English","A little bit of French","Male","White or Caucasian","No","Undergraduate degree","No, currently not in school","N/A","N/A","N/A","4","3","2","2","","0.83333334","stim/H200.jpg","76","76","0.900000004","4","1","4","","4","4","4","0","2","3","3","4","0","0","0","0","6","6","0","6","6","0","10","2","3","6","1","5","5","5","1","5","5","5","1","1","2","0","5","3","3","3","0","5","0","3","3","0","3","1","6","3","3","0","3","3","6","6","0","3","3","1","2","2","2","agree","null","","","","","","","","stim/T060.jpg","null","","",""
"html-keyboard-response","23","399078","0.0-8.0-1.5","bcrgq9h6dd8dpnq","1","6127bfccad93004b373846e9","27","07/1994","Single","English","A little bit of French","Male","White or Caucasian","No","Undergraduate degree","No, currently not in school","N/A","N/A","N/A","4","3","2","2","","0.83333334","stim/H200.jpg","76","76","0.900000004","4","1","4","","4","4","4","0","2","3","3","4","0","0","0","0","6","6","0","6","6","0","10","2","3","6","1","5","5","5","1","5","5","5","1","1","2","0","5","3","3","3","0","5","0","3","3","0","3","1","6","3","3","0","3","3","6","6","0","3","3","1","2","2","2","agree","195","","","","","","","","<div style=""font-size:60px;"">?</div>","65","6","Practice","0.5"
"image-keyboard-response","24","400090","0.0-8.0-0.6","bcrgq9h6dd8dpnq","1","6127bfccad93004b373846e9","27","07/1994","Single","English","A little bit of French","Male","White or Caucasian","No","Undergraduate degree","No, currently not in school","N/A","N/A","N/A","4","3","2","2","","0.83333334","stim/H200.jpg","76","76","0.900000004","4","1","4","","4","4","4","0","2","3","3","4","0","0","0","0","6","6","0","6","6","0","10","2","3","6","1","5","5","5","1","5","5","5","1","1","2","0","5","3","3","3","0","5","0","3","3","0","3","1","6","3","3","0","3","3","6","6","0","3","3","1","2","2","2","agree","null","","","","","","","","stim/H090.jpg","null","","",""
"html-keyboard-response","25","400960","0.0-8.0-1.6","bcrgq9h6dd8dpnq","1","6127bfccad93004b373846e9","27","07/1994","Single","English","A little bit of French","Male","White or Caucasian","No","Undergraduate degree","No, currently not in school","N/A","N/A","N/A","4","3","2","2","","0.83333334","stim/H200.jpg","76","76","0.900000004","4","1","4","","4","4","4","0","2","3","3","4","0","0","0","0","6","6","0","6","6","0","10","2","3","6","1","5","5","5","1","5","5","5","1","1","2","0","5","3","3","3","0","5","0","3","3","0","3","1","6","3","3","0","3","3","6","6","0","3","3","1","2","2","2","agree","868","","","","","","","","<div style=""font-size:60px;"">?</div>","76","7","Practice","0.5"
"image-keyboard-response","26","401976","0.0-8.0-0.7","bcrgq9h6dd8dpnq","1","6127bfccad93004b373846e9","27","07/1994","Single","English","A little bit of French","Male","White or Caucasian","No","Undergraduate degree","No, currently not in school","N/A","N/A","N/A","4","3","2","2","","0.83333334","stim/H200.jpg","76","76","0.900000004","4","1","4","","4","4","4","0","2","3","3","4","0","0","0","0","6","6","0","6","6","0","10","2","3","6","1","5","5","5","1","5","5","5","1","1","2","0","5","3","3","3","0","5","0","3","3","0","3","1","6","3","3","0","3","3","6","6","0","3","3","1","2","2","2","agree","null","","","","","","","","stim/T180.jpg","null","","",""
"html-keyboard-response","27","402257","0.0-8.0-1.7","bcrgq9h6dd8dpnq","1","6127bfccad93004b373846e9","27","07/1994","Single","English","A little bit of French","Male","White or Caucasian","No","Undergraduate degree","No, currently not in school","N/A","N/A","N/A","4","3","2","2","","0.83333334","stim/H200.jpg","76","76","0.900000004","4","1","4","","4","4","4","0","2","3","3","4","0","0","0","0","6","6","0","6","6","0","10","2","3","6","1","5","5","5","1","5","5","5","1","1","2","0","5","3","3","3","0","5","0","3","3","0","3","1","6","3","3","0","3","3","6","6","0","3","3","1","2","2","2","agree","281","","","","","","","","<div style=""font-size:60px;"">?</div>","65","8","Practice","0.5"
"image-keyboard-response","28","403275","0.0-8.0-0.8","bcrgq9h6dd8dpnq","1","6127bfccad93004b373846e9","27","07/1994","Single","English","A little bit of French","Male","White or Caucasian","No","Undergraduate degree","No, currently not in school","N/A","N/A","N/A","4","3","2","2","","0.83333334","stim/H200.jpg","76","76","0.900000004","4","1","4","","4","4","4","0","2","3","3","4","0","0","0","0","6","6","0","6","6","0","10","2","3","6","1","5","5","5","1","5","5","5","1","1","2","0","5","3","3","3","0","5","0","3","3","0","3","1","6","3","3","0","3","3","6","6","0","3","3","1","2","2","2","agree","null","","","","","","","","stim/H180.jpg","null","","",""
"html-keyboard-response","29","403420","0.0-8.0-1.8","bcrgq9h6dd8dpnq","1","6127bfccad93004b373846e9","27","07/1994","Single","English","A little bit of French","Male","White or Caucasian","No","Undergraduate degree","No, currently not in school","N/A","N/A","N/A","4","3","2","2","","0.83333334","stim/H200.jpg","76","76","0.900000004","4","1","4","","4","4","4","0","2","3","3","4","0","0","0","0","6","6","0","6","6","0","10","2","3","6","1","5","5","5","1","5","5","5","1","1","2","0","5","3","3","3","0","5","0","3","3","0","3","1","6","3","3","0","3","3","6","6","0","3","3","1","2","2","2","agree","143","","","","","","","","<div style=""font-size:60px;"">?</div>","76","9","Practice","0.5"
"image-keyboard-response","30","404438","0.0-8.0-0.9","bcrgq9h6dd8dpnq","1","6127bfccad93004b373846e9","27","07/1994","Single","English","A little bit of French","Male","White or Caucasian","No","Undergraduate degree","No, currently not in school","N/A","N/A","N/A","4","3","2","2","","0.83333334","stim/H200.jpg","76","76","0.900000004","4","1","4","","4","4","4","0","2","3","3","4","0","0","0","0","6","6","0","6","6","0","10","2","3","6","1","5","5","5","1","5","5","5","1","1","2","0","5","3","3","3","0","5","0","3","3","0","3","1","6","3","3","0","3","3","6","6","0","3","3","1","2","2","2","agree","null","","","","","","","","stim/H230.jpg","null","","",""
"html-keyboard-response","31","404781","0.0-8.0-1.9","bcrgq9h6dd8dpnq","1","6127bfccad93004b373846e9","27","07/1994","Single","English","A little bit of French","Male","White or Caucasian","No","Undergraduate degree","No, currently not in school","N/A","N/A","N/A","4","3","2","2","","0.83333334","stim/H200.jpg","76","76","0.900000004","4","1","4","","4","4","4","0","2","3","3","4","0","0","0","0","6","6","0","6","6","0","10","2","3","6","1","5","5","5","1","5","5","5","1","1","2","0","5","3","3","3","0","5","0","3","3","0","3","1","6","3","3","0","3","3","6","6","0","3","3","1","2","2","2","agree","343","","","","","","","","<div style=""font-size:60px;"">?</div>","76","10","Practice","0.5"
"html-keyboard-response","32","411382","0.0-9.0","bcrgq9h6dd8dpnq","1","6127bfccad93004b373846e9","27","07/1994","Single","English","A little bit of French","Male","White or Caucasian","No","Undergraduate degree","No, currently not in school","N/A","N/A","N/A","4","3","2","2","","0.83333334","stim/H200.jpg","76","76","0.900000004","4","1","4","","4","4","4","0","2","3","3","4","0","0","0","0","6","6","0","6","6","0","10","2","3","6","1","5","5","5","1","5","5","5","1","1","2","0","5","3","3","3","0","5","0","3","3","0","3","1","6","3","3","0","3","3","6","6","0","3","3","1","2","2","2","agree","6091","","","","","","","","<p>You have now completed the practice series.</p><p>If you have any questions, please reload this page and read the instructions again.</p><p>Otherwise, you're ready to begin the study!</p><p><strong>REMEMBER</strong>: Press <b>L </b>when you think the face is of Western origin, and <b>A </b>if not. </p><p>Press SPACE when you're ready to start!</p>","32","","",""
"html-keyboard-response","33","413454","0.0-10.0","bcrgq9h6dd8dpnq","1","6127bfccad93004b373846e9","27","07/1994","Single","English","A little bit of French","Male","White or Caucasian","No","Undergraduate degree","No, currently not in school","N/A","N/A","N/A","4","3","2","2","","0.83333334","stim/H200.jpg","76","76","0.900000004","4","1","4","","4","4","4","0","2","3","3","4","0","0","0","0","6","6","0","6","6","0","10","2","3","6","1","5","5","5","1","5","5","5","1","1","2","0","5","3","3","3","0","5","0","3","3","0","3","1","6","3","3","0","3","3","6","6","0","3","3","1","2","2","2","agree","1571","","","","","","","","<p>Block 1</p><p>Press SPACE to continue.</p>","32","","",""
"image-keyboard-response","34","414966","0.0-11.0-0.0","bcrgq9h6dd8dpnq","1","6127bfccad93004b373846e9","27","07/1994","Single","English","A little bit of French","Male","White or Caucasian","No","Undergraduate degree","No, currently not in school","N/A","N/A","N/A","4","3","2","2","","0.83333334","stim/H200.jpg","76","76","0.900000004","4","1","4","","4","4","4","0","2","3","3","4","0","0","0","0","6","6","0","6","6","0","10","2","3","6","1","5","5","5","1","5","5","5","1","1","2","0","5","3","3","3","0","5","0","3","3","0","3","1","6","3","3","0","3","3","6","6","0","3","3","1","2","2","2","agree","null","","","","","","","","stim/H050.jpg","null","","",""
"html-keyboard-response","35","419398","0.0-11.0-1.0","bcrgq9h6dd8dpnq","1","6127bfccad93004b373846e9","27","07/1994","Single","English","A little bit of French","Male","White or Caucasian","No","Undergraduate degree","No, currently not in school","N/A","N/A","N/A","4","3","2","2","","0.83333334","stim/H200.jpg","76","76","0.900000004","4","1","4","","4","4","4","0","2","3","3","4","0","0","0","0","6","6","0","6","6","0","10","2","3","6","1","5","5","5","1","5","5","5","1","1","2","0","5","3","3","3","0","5","0","3","3","0","3","1","6","3","3","0","3","3","6","6","0","3","3","1","2","2","2","agree","4432","","","","","","","","<div style=""font-size:60px;"">?</div>","76","1","1","0.8"
"image-keyboard-response","36","420413","0.0-11.0-0.1","bcrgq9h6dd8dpnq","1","6127bfccad93004b373846e9","27","07/1994","Single","English","A little bit of French","Male","White or Caucasian","No","Undergraduate degree","No, currently not in school","N/A","N/A","N/A","4","3","2","2","","0.83333334","stim/H200.jpg","76","76","0.900000004","4","1","4","","4","4","4","0","2","3","3","4","0","0","0","0","6","6","0","6","6","0","10","2","3","6","1","5","5","5","1","5","5","5","1","1","2","0","5","3","3","3","0","5","0","3","3","0","3","1","6","3","3","0","3","3","6","6","0","3","3","1","2","2","2","agree","null","","","","","","","","stim/H200.jpg","null","","",""
"html-keyboard-response","37","420851","0.0-11.0-1.1","bcrgq9h6dd8dpnq","1","6127bfccad93004b373846e9","27","07/1994","Single","English","A little bit of French","Male","White or Caucasian","No","Undergraduate degree","No, currently not in school","N/A","N/A","N/A","4","3","2","2","","0.83333334","stim/H200.jpg","76","76","0.900000004","4","1","4","","4","4","4","0","2","3","3","4","0","0","0","0","6","6","0","6","6","0","10","2","3","6","1","5","5","5","1","5","5","5","1","1","2","0","5","3","3","3","0","5","0","3","3","0","3","1","6","3","3","0","3","3","6","6","0","3","3","1","2","2","2","agree","437","","","","","","","","<div style=""font-size:60px;"">?</div>","76","2","1","0.8"
"image-keyboard-response","38","421872","0.0-11.0-0.2","bcrgq9h6dd8dpnq","1","6127bfccad93004b373846e9","27","07/1994","Single","English","A little bit of French","Male","White or Caucasian","No","Undergraduate degree","No, currently not in school","N/A","N/A","N/A","4","3","2","2","","0.83333334","stim/H200.jpg","76","76","0.900000004","4","1","4","","4","4","4","0","2","3","3","4","0","0","0","0","6","6","0","6","6","0","10","2","3","6","1","5","5","5","1","5","5","5","1","1","2","0","5","3","3","3","0","5","0","3","3","0","3","1","6","3","3","0","3","3","6","6","0","3","3","1","2","2","2","agree","null","","","","","","","","stim/H020.jpg","null","","",""
"html-keyboard-response","39","424406","0.0-11.0-1.2","bcrgq9h6dd8dpnq","1","6127bfccad93004b373846e9","27","07/1994","Single","English","A little bit of French","Male","White or Caucasian","No","Undergraduate degree","No, currently not in school","N/A","N/A","N/A","4","3","2","2","","0.83333334","stim/H200.jpg","76","76","0.900000004","4","1","4","","4","4","4","0","2","3","3","4","0","0","0","0","6","6","0","6","6","0","10","2","3","6","1","5","5","5","1","5","5","5","1","1","2","0","5","3","3","3","0","5","0","3","3","0","3","1","6","3","3","0","3","3","6","6","0","3","3","1","2","2","2","agree","2534","","","","","","","","<div style=""font-size:60px;"">?</div>","65","3","1","0.8"
"image-keyboard-response","40","425419","0.0-11.0-0.3","bcrgq9h6dd8dpnq","1","6127bfccad93004b373846e9","27","07/1994","Single","English","A little bit of French","Male","White or Caucasian","No","Undergraduate degree","No, currently not in school","N/A","N/A","N/A","4","3","2","2","","0.83333334","stim/H200.jpg","76","76","0.900000004","4","1","4","","4","4","4","0","2","3","3","4","0","0","0","0","6","6","0","6","6","0","10","2","3","6","1","5","5","5","1","5","5","5","1","1","2","0","5","3","3","3","0","5","0","3","3","0","3","1","6","3","3","0","3","3","6","6","0","3","3","1","2","2","2","agree","null","","","","","","","","stim/T080.jpg","null","","",""
"html-keyboard-response","41","425732","0.0-11.0-1.3","bcrgq9h6dd8dpnq","1","6127bfccad93004b373846e9","27","07/1994","Single","English","A little bit of French","Male","White or Caucasian","No","Undergraduate degree","No, currently not in school","N/A","N/A","N/A","4","3","2","2","","0.83333334","stim/H200.jpg","76","76","0.900000004","4","1","4","","4","4","4","0","2","3","3","4","0","0","0","0","6","6","0","6","6","0","10","2","3","6","1","5","5","5","1","5","5","5","1","1","2","0","5","3","3","3","0","5","0","3","3","0","3","1","6","3","3","0","3","3","6","6","0","3","3","1","2","2","2","agree","314","","","","","","","","<div style=""font-size:60px;"">?</div>","65","4","1","0.8"
"image-keyboard-response","42","426750","0.0-11.0-0.4","bcrgq9h6dd8dpnq","1","6127bfccad93004b373846e9","27","07/1994","Single","English","A little bit of French","Male","White or Caucasian","No","Undergraduate degree","No, currently not in school","N/A","N/A","N/A","4","3","2","2","","0.83333334","stim/H200.jpg","76","76","0.900000004","4","1","4","","4","4","4","0","2","3","3","4","0","0","0","0","6","6","0","6","6","0","10","2","3","6","1","5","5","5","1","5","5","5","1","1","2","0","5","3","3","3","0","5","0","3","3","0","3","1","6","3","3","0","3","3","6","6","0","3","3","1","2","2","2","agree","null","","","","","","","","stim/T280.jpg","null","","",""
"html-keyboard-response","43","427045","0.0-11.0-1.4","bcrgq9h6dd8dpnq","1","6127bfccad93004b373846e9","27","07/1994","Single","English","A little bit of French","Male","White or Caucasian","No","Undergraduate degree","No, currently not in school","N/A","N/A","N/A","4","3","2","2","","0.83333334","stim/H200.jpg","76","76","0.900000004","4","1","4","","4","4","4","0","2","3","3","4","0","0","0","0","6","6","0","6","6","0","10","2","3","6","1","5","5","5","1","5","5","5","1","1","2","0","5","3","3","3","0","5","0","3","3","0","3","1","6","3","3","0","3","3","6","6","0","3","3","1","2","2","2","agree","295","","","","","","","","<div style=""font-size:60px;"">?</div>","65","5","1","0.8"
"image-keyboard-response","44","428065","0.0-11.0-0.5","bcrgq9h6dd8dpnq","1","6127bfccad93004b373846e9","27","07/1994","Single","English","A little bit of French","Male","White or Caucasian","No","Undergraduate degree","No, currently not in school","N/A","N/A","N/A","4","3","2","2","","0.83333334","stim/H200.jpg","76","76","0.900000004","4","1","4","","4","4","4","0","2","3","3","4","0","0","0","0","6","6","0","6","6","0","10","2","3","6","1","5","5","5","1","5","5","5","1","1","2","0","5","3","3","3","0","5","0","3","3","0","3","1","6","3","3","0","3","3","6","6","0","3","3","1","2","2","2","agree","null","","","","","","","","stim/H050.jpg","null","","",""
"html-keyboard-response","45","428466","0.0-11.0-1.5","bcrgq9h6dd8dpnq","1","6127bfccad93004b373846e9","27","07/1994","Single","English","A little bit of French","Male","White or Caucasian","No","Undergraduate degree","No, currently not in school","N/A","N/A","N/A","4","3","2","2","","0.83333334","stim/H200.jpg","76","76","0.900000004","4","1","4","","4","4","4","0","2","3","3","4","0","0","0","0","6","6","0","6","6","0","10","2","3","6","1","5","5","5","1","5","5","5","1","1","2","0","5","3","3","3","0","5","0","3","3","0","3","1","6","3","3","0","3","3","6","6","0","3","3","1","2","2","2","agree","402","","","","","","","","<div style=""font-size:60px;"">?</div>","76","6","1","0.8"
"image-keyboard-response","46","429489","0.0-11.0-0.6","bcrgq9h6dd8dpnq","1","6127bfccad93004b373846e9","27","07/1994","Single","English","A little bit of French","Male","White or Caucasian","No","Undergraduate degree","No, currently not in school","N/A","N/A","N/A","4","3","2","2","","0.83333334","stim/H200.jpg","76","76","0.900000004","4","1","4","","4","4","4","0","2","3","3","4","0","0","0","0","6","6","0","6","6","0","10","2","3","6","1","5","5","5","1","5","5","5","1","1","2","0","5","3","3","3","0","5","0","3","3","0","3","1","6","3","3","0","3","3","6","6","0","3","3","1","2","2","2","agree","null","","","","","","","","stim/H080.jpg","null","","",""
"html-keyboard-response","47","429836","0.0-11.0-1.6","bcrgq9h6dd8dpnq","1","6127bfccad93004b373846e9","27","07/1994","Single","English","A little bit of French","Male","White or Caucasian","No","Undergraduate degree","No, currently not in school","N/A","N/A","N/A","4","3","2","2","","0.83333334","stim/H200.jpg","76","76","0.900000004","4","1","4","","4","4","4","0","2","3","3","4","0","0","0","0","6","6","0","6","6","0","10","2","3","6","1","5","5","5","1","5","5","5","1","1","2","0","5","3","3","3","0","5","0","3","3","0","3","1","6","3","3","0","3","3","6","6","0","3","3","1","2","2","2","agree","347","","","","","","","","<div style=""font-size:60px;"">?</div>","76","7","1","0.8"
"image-keyboard-response","48","430853","0.0-11.0-0.7","bcrgq9h6dd8dpnq","1","6127bfccad93004b373846e9","27","07/1994","Single","English","A little bit of French","Male","White or Caucasian","No","Undergraduate degree","No, currently not in school","N/A","N/A","N/A","4","3","2","2","","0.83333334","stim/H200.jpg","76","76","0.900000004","4","1","4","","4","4","4","0","2","3","3","4","0","0","0","0","6","6","0","6","6","0","10","2","3","6","1","5","5","5","1","5","5","5","1","1","2","0","5","3","3","3","0","5","0","3","3","0","3","1","6","3","3","0","3","3","6","6","0","3","3","1","2","2","2","agree","null","","","","","","","","stim/H210.jpg","null","","",""
"html-keyboard-response","49","431107","0.0-11.0-1.7","bcrgq9h6dd8dpnq","1","6127bfccad93004b373846e9","27","07/1994","Single","English","A little bit of French","Male","White or Caucasian","No","Undergraduate degree","No, currently not in school","N/A","N/A","N/A","4","3","2","2","","0.83333334","stim/H200.jpg","76","76","0.900000004","4","1","4","","4","4","4","0","2","3","3","4","0","0","0","0","6","6","0","6","6","0","10","2","3","6","1","5","5","5","1","5","5","5","1","1","2","0","5","3","3","3","0","5","0","3","3","0","3","1","6","3","3","0","3","3","6","6","0","3","3","1","2","2","2","agree","254","","","","","","","","<div style=""font-size:60px;"">?</div>","76","8","1","0.8"
"image-keyboard-response","50","432125","0.0-11.0-0.8","bcrgq9h6dd8dpnq","1","6127bfccad93004b373846e9","27","07/1994","Single","English","A little bit of French","Male","White or Caucasian","No","Undergraduate degree","No, currently not in school","N/A","N/A","N/A","4","3","2","2","","0.83333334","stim/H200.jpg","76","76","0.900000004","4","1","4","","4","4","4","0","2","3","3","4","0","0","0","0","6","6","0","6","6","0","10","2","3","6","1","5","5","5","1","5","5","5","1","1","2","0","5","3","3","3","0","5","0","3","3","0","3","1","6","3","3","0","3","3","6","6","0","3","3","1","2","2","2","agree","null","","","","","","","","stim/H280.jpg","null","","",""
"html-keyboard-response","51","432361","0.0-11.0-1.8","bcrgq9h6dd8dpnq","1","6127bfccad93004b373846e9","27","07/1994","Single","English","A little bit of French","Male","White or Caucasian","No","Undergraduate degree","No, currently not in school","N/A","N/A","N/A","4","3","2","2","","0.83333334","stim/H200.jpg","76","76","0.900000004","4","1","4","","4","4","4","0","2","3","3","4","0","0","0","0","6","6","0","6","6","0","10","2","3","6","1","5","5","5","1","5","5","5","1","1","2","0","5","3","3","3","0","5","0","3","3","0","3","1","6","3","3","0","3","3","6","6","0","3","3","1","2","2","2","agree","235","","","","","","","","<div style=""font-size:60px;"">?</div>","76","9","1","0.8"
"image-keyboard-response","52","433378","0.0-11.0-0.9","bcrgq9h6dd8dpnq","1","6127bfccad93004b373846e9","27","07/1994","Single","English","A little bit of French","Male","White or Caucasian","No","Undergraduate degree","No, currently not in school","N/A","N/A","N/A","4","3","2","2","","0.83333334","stim/H200.jpg","76","76","0.900000004","4","1","4","","4","4","4","0","2","3","3","4","0","0","0","0","6","6","0","6","6","0","10","2","3","6","1","5","5","5","1","5","5","5","1","1","2","0","5","3","3","3","0","5","0","3","3","0","3","1","6","3","3","0","3","3","6","6","0","3","3","1","2","2","2","agree","null","","","","","","","","stim/H300.jpg","null","","",""
"html-keyboard-response","53","433640","0.0-11.0-1.9","bcrgq9h6dd8dpnq","1","6127bfccad93004b373846e9","27","07/1994","Single","English","A little bit of French","Male","White or Caucasian","No","Undergraduate degree","No, currently not in school","N/A","N/A","N/A","4","3","2","2","","0.83333334","stim/H200.jpg","76","76","0.900000004","4","1","4","","4","4","4","0","2","3","3","4","0","0","0","0","6","6","0","6","6","0","10","2","3","6","1","5","5","5","1","5","5","5","1","1","2","0","5","3","3","3","0","5","0","3","3","0","3","1","6","3","3","0","3","3","6","6","0","3","3","1","2","2","2","agree","263","","","","","","","","<div style=""font-size:60px;"">?</div>","76","10","1","0.8"
"image-keyboard-response","54","434661","0.0-11.0-0.10","bcrgq9h6dd8dpnq","1","6127bfccad93004b373846e9","27","07/1994","Single","English","A little bit of French","Male","White or Caucasian","No","Undergraduate degree","No, currently not in school","N/A","N/A","N/A","4","3","2","2","","0.83333334","stim/H200.jpg","76","76","0.900000004","4","1","4","","4","4","4","0","2","3","3","4","0","0","0","0","6","6","0","6","6","0","10","2","3","6","1","5","5","5","1","5","5","5","1","1","2","0","5","3","3","3","0","5","0","3","3","0","3","1","6","3","3","0","3","3","6","6","0","3","3","1","2","2","2","agree","null","","","","","","","","stim/H010.jpg","null","","",""
"html-keyboard-response","55","435025","0.0-11.0-1.10","bcrgq9h6dd8dpnq","1","6127bfccad93004b373846e9","27","07/1994","Single","English","A little bit of French","Male","White or Caucasian","No","Undergraduate degree","No, currently not in school","N/A","N/A","N/A","4","3","2","2","","0.83333334","stim/H200.jpg","76","76","0.900000004","4","1","4","","4","4","4","0","2","3","3","4","0","0","0","0","6","6","0","6","6","0","10","2","3","6","1","5","5","5","1","5","5","5","1","1","2","0","5","3","3","3","0","5","0","3","3","0","3","1","6","3","3","0","3","3","6","6","0","3","3","1","2","2","2","agree","364","","","","","","","","<div style=""font-size:60px;"">?</div>","65","11","1","0.8"
"image-keyboard-response","56","436052","0.0-11.0-0.11","bcrgq9h6dd8dpnq","1","6127bfccad93004b373846e9","27","07/1994","Single","English","A little bit of French","Male","White or Caucasian","No","Undergraduate degree","No, currently not in school","N/A","N/A","N/A","4","3","2","2","","0.83333334","stim/H200.jpg","76","76","0.900000004","4","1","4","","4","4","4","0","2","3","3","4","0","0","0","0","6","6","0","6","6","0","10","2","3","6","1","5","5","5","1","5","5","5","1","1","2","0","5","3","3","3","0","5","0","3","3","0","3","1","6","3","3","0","3","3","6","6","0","3","3","1","2","2","2","agree","null","","","","","","","","stim/H170.jpg","null","","",""
"html-keyboard-response","57","436479","0.0-11.0-1.11","bcrgq9h6dd8dpnq","1","6127bfccad93004b373846e9","27","07/1994","Single","English","A little bit of French","Male","White or Caucasian","No","Undergraduate degree","No, currently not in school","N/A","N/A","N/A","4","3","2","2","","0.83333334","stim/H200.jpg","76","76","0.900000004","4","1","4","","4","4","4","0","2","3","3","4","0","0","0","0","6","6","0","6","6","0","10","2","3","6","1","5","5","5","1","5","5","5","1","1","2","0","5","3","3","3","0","5","0","3","3","0","3","1","6","3","3","0","3","3","6","6","0","3","3","1","2","2","2","agree","426","","","","","","","","<div style=""font-size:60px;"">?</div>","76","12","1","0.8"
"image-keyboard-response","58","437494","0.0-11.0-0.12","bcrgq9h6dd8dpnq","1","6127bfccad93004b373846e9","27","07/1994","Single","English","A little bit of French","Male","White or Caucasian","No","Undergraduate degree","No, currently not in school","N/A","N/A","N/A","4","3","2","2","","0.83333334","stim/H200.jpg","76","76","0.900000004","4","1","4","","4","4","4","0","2","3","3","4","0","0","0","0","6","6","0","6","6","0","10","2","3","6","1","5","5","5","1","5","5","5","1","1","2","0","5","3","3","3","0","5","0","3","3","0","3","1","6","3","3","0","3","3","6","6","0","3","3","1","2","2","2","agree","null","","","","","","","","stim/H160.jpg","null","","",""
"html-keyboard-response","59","437787","0.0-11.0-1.12","bcrgq9h6dd8dpnq","1","6127bfccad93004b373846e9","27","07/1994","Single","English","A little bit of French","Male","White or Caucasian","No","Undergraduate degree","No, currently not in school","N/A","N/A","N/A","4","3","2","2","","0.83333334","stim/H200.jpg","76","76","0.900000004","4","1","4","","4","4","4","0","2","3","3","4","0","0","0","0","6","6","0","6","6","0","10","2","3","6","1","5","5","5","1","5","5","5","1","1","2","0","5","3","3","3","0","5","0","3","3","0","3","1","6","3","3","0","3","3","6","6","0","3","3","1","2","2","2","agree","293","","","","","","","","<div style=""font-size:60px;"">?</div>","76","13","1","0.8"
"image-keyboard-response","60","438810","0.0-11.0-0.13","bcrgq9h6dd8dpnq","1","6127bfccad93004b373846e9","27","07/1994","Single","English","A little bit of French","Male","White or Caucasian","No","Undergraduate degree","No, currently not in school","N/A","N/A","N/A","4","3","2","2","","0.83333334","stim/H200.jpg","76","76","0.900000004","4","1","4","","4","4","4","0","2","3","3","4","0","0","0","0","6","6","0","6","6","0","10","2","3","6","1","5","5","5","1","5","5","5","1","1","2","0","5","3","3","3","0","5","0","3","3","0","3","1","6","3","3","0","3","3","6","6","0","3","3","1","2","2","2","agree","null","","","","","","","","stim/H020.jpg","null","","",""
"html-keyboard-response","61","439820","0.0-11.0-1.13","bcrgq9h6dd8dpnq","1","6127bfccad93004b373846e9","27","07/1994","Single","English","A little bit of French","Male","White or Caucasian","No","Undergraduate degree","No, currently not in school","N/A","N/A","N/A","4","3","2","2","","0.83333334","stim/H200.jpg","76","76","0.900000004","4","1","4","","4","4","4","0","2","3","3","4","0","0","0","0","6","6","0","6","6","0","10","2","3","6","1","5","5","5","1","5","5","5","1","1","2","0","5","3","3","3","0","5","0","3","3","0","3","1","6","3","3","0","3","3","6","6","0","3","3","1","2","2","2","agree","1008","","","","","","","","<div style=""font-size:60px;"">?</div>","65","14","1","0.8"
"image-keyboard-response","62","440838","0.0-11.0-0.14","bcrgq9h6dd8dpnq","1","6127bfccad93004b373846e9","27","07/1994","Single","English","A little bit of French","Male","White or Caucasian","No","Undergraduate degree","No, currently not in school","N/A","N/A","N/A","4","3","2","2","","0.83333334","stim/H200.jpg","76","76","0.900000004","4","1","4","","4","4","4","0","2","3","3","4","0","0","0","0","6","6","0","6","6","0","10","2","3","6","1","5","5","5","1","5","5","5","1","1","2","0","5","3","3","3","0","5","0","3","3","0","3","1","6","3","3","0","3","3","6","6","0","3","3","1","2","2","2","agree","null","","","","","","","","stim/T190.jpg","null","","",""
"html-keyboard-response","63","441118","0.0-11.0-1.14","bcrgq9h6dd8dpnq","1","6127bfccad93004b373846e9","27","07/1994","Single","English","A little bit of French","Male","White or Caucasian","No","Undergraduate degree","No, currently not in school","N/A","N/A","N/A","4","3","2","2","","0.83333334","stim/H200.jpg","76","76","0.900000004","4","1","4","","4","4","4","0","2","3","3","4","0","0","0","0","6","6","0","6","6","0","10","2","3","6","1","5","5","5","1","5","5","5","1","1","2","0","5","3","3","3","0","5","0","3","3","0","3","1","6","3","3","0","3","3","6","6","0","3","3","1","2","2","2","agree","280","","","","","","","","<div style=""font-size:60px;"">?</div>","65","15","1","0.8"
"image-keyboard-response","64","442136","0.0-11.0-0.15","bcrgq9h6dd8dpnq","1","6127bfccad93004b373846e9","27","07/1994","Single","English","A little bit of French","Male","White or Caucasian","No","Undergraduate degree","No, currently not in school","N/A","N/A","N/A","4","3","2","2","","0.83333334","stim/H200.jpg","76","76","0.900000004","4","1","4","","4","4","4","0","2","3","3","4","0","0","0","0","6","6","0","6","6","0","10","2","3","6","1","5","5","5","1","5","5","5","1","1","2","0","5","3","3","3","0","5","0","3","3","0","3","1","6","3","3","0","3","3","6","6","0","3","3","1","2","2","2","agree","null","","","","","","","","stim/H290.jpg","null","","",""
"html-keyboard-response","65","442398","0.0-11.0-1.15","bcrgq9h6dd8dpnq","1","6127bfccad93004b373846e9","27","07/1994","Single","English","A little bit of French","Male","White or Caucasian","No","Undergraduate degree","No, currently not in school","N/A","N/A","N/A","4","3","2","2","","0.83333334","stim/H200.jpg","76","76","0.900000004","4","1","4","","4","4","4","0","2","3","3","4","0","0","0","0","6","6","0","6","6","0","10","2","3","6","1","5","5","5","1","5","5","5","1","1","2","0","5","3","3","3","0","5","0","3","3","0","3","1","6","3","3","0","3","3","6","6","0","3","3","1","2","2","2","agree","262","","","","","","","","<div style=""font-size:60px;"">?</div>","76","16","1","0.8"
"image-keyboard-response","66","443419","0.0-11.0-0.16","bcrgq9h6dd8dpnq","1","6127bfccad93004b373846e9","27","07/1994","Single","English","A little bit of French","Male","White or Caucasian","No","Undergraduate degree","No, currently not in school","N/A","N/A","N/A","4","3","2","2","","0.83333334","stim/H200.jpg","76","76","0.900000004","4","1","4","","4","4","4","0","2","3","3","4","0","0","0","0","6","6","0","6","6","0","10","2","3","6","1","5","5","5","1","5","5","5","1","1","2","0","5","3","3","3","0","5","0","3","3","0","3","1","6","3","3","0","3","3","6","6","0","3","3","1","2","2","2","agree","null","","","","","","","","stim/H260.jpg","null","","",""
"html-keyboard-response","67","443668","0.0-11.0-1.16","bcrgq9h6dd8dpnq","1","6127bfccad93004b373846e9","27","07/1994","Single","English","A little bit of French","Male","White or Caucasian","No","Undergraduate degree","No, currently not in school","N/A","N/A","N/A","4","3","2","2","","0.83333334","stim/H200.jpg","76","76","0.900000004","4","1","4","","4","4","4","0","2","3","3","4","0","0","0","0","6","6","0","6","6","0","10","2","3","6","1","5","5","5","1","5","5","5","1","1","2","0","5","3","3","3","0","5","0","3","3","0","3","1","6","3","3","0","3","3","6","6","0","3","3","1","2","2","2","agree","248","","","","","","","","<div style=""font-size:60px;"">?</div>","76","17","1","0.8"
"image-keyboard-response","68","444689","0.0-11.0-0.17","bcrgq9h6dd8dpnq","1","6127bfccad93004b373846e9","27","07/1994","Single","English","A little bit of French","Male","White or Caucasian","No","Undergraduate degree","No, currently not in school","N/A","N/A","N/A","4","3","2","2","","0.83333334","stim/H200.jpg","76","76","0.900000004","4","1","4","","4","4","4","0","2","3","3","4","0","0","0","0","6","6","0","6","6","0","10","2","3","6","1","5","5","5","1","5","5","5","1","1","2","0","5","3","3","3","0","5","0","3","3","0","3","1","6","3","3","0","3","3","6","6","0","3","3","1","2","2","2","agree","null","","","","","","","","stim/H040.jpg","null","","",""
"html-keyboard-response","69","444962","0.0-11.0-1.17","bcrgq9h6dd8dpnq","1","6127bfccad93004b373846e9","27","07/1994","Single","English","A little bit of French","Male","White or Caucasian","No","Undergraduate degree","No, currently not in school","N/A","N/A","N/A","4","3","2","2","","0.83333334","stim/H200.jpg","76","76","0.900000004","4","1","4","","4","4","4","0","2","3","3","4","0","0","0","0","6","6","0","6","6","0","10","2","3","6","1","5","5","5","1","5","5","5","1","1","2","0","5","3","3","3","0","5","0","3","3","0","3","1","6","3","3","0","3","3","6","6","0","3","3","1","2","2","2","agree","272","","","","","","","","<div style=""font-size:60px;"">?</div>","65","18","1","0.8"
"image-keyboard-response","70","445974","0.0-11.0-0.18","bcrgq9h6dd8dpnq","1","6127bfccad93004b373846e9","27","07/1994","Single","English","A little bit of French","Male","White or Caucasian","No","Undergraduate degree","No, currently not in school","N/A","N/A","N/A","4","3","2","2","","0.83333334","stim/H200.jpg","76","76","0.900000004","4","1","4","","4","4","4","0","2","3","3","4","0","0","0","0","6","6","0","6","6","0","10","2","3","6","1","5","5","5","1","5","5","5","1","1","2","0","5","3","3","3","0","5","0","3","3","0","3","1","6","3","3","0","3","3","6","6","0","3","3","1","2","2","2","agree","null","","","","","","","","stim/T010.jpg","null","","",""
"html-keyboard-response","71","446231","0.0-11.0-1.18","bcrgq9h6dd8dpnq","1","6127bfccad93004b373846e9","27","07/1994","Single","English","A little bit of French","Male","White or Caucasian","No","Undergraduate degree","No, currently not in school","N/A","N/A","N/A","4","3","2","2","","0.83333334","stim/H200.jpg","76","76","0.900000004","4","1","4","","4","4","4","0","2","3","3","4","0","0","0","0","6","6","0","6","6","0","10","2","3","6","1","5","5","5","1","5","5","5","1","1","2","0","5","3","3","3","0","5","0","3","3","0","3","1","6","3","3","0","3","3","6","6","0","3","3","1","2","2","2","agree","257","","","","","","","","<div style=""font-size:60px;"">?</div>","65","19","1","0.8"
"image-keyboard-response","72","447244","0.0-11.0-0.19","bcrgq9h6dd8dpnq","1","6127bfccad93004b373846e9","27","07/1994","Single","English","A little bit of French","Male","White or Caucasian","No","Undergraduate degree","No, currently not in school","N/A","N/A","N/A","4","3","2","2","","0.83333334","stim/H200.jpg","76","76","0.900000004","4","1","4","","4","4","4","0","2","3","3","4","0","0","0","0","6","6","0","6","6","0","10","2","3","6","1","5","5","5","1","5","5","5","1","1","2","0","5","3","3","3","0","5","0","3","3","0","3","1","6","3","3","0","3","3","6","6","0","3","3","1","2","2","2","agree","null","","","","","","","","stim/H180.jpg","null","","",""
"html-keyboard-response","73","447604","0.0-11.0-1.19","bcrgq9h6dd8dpnq","1","6127bfccad93004b373846e9","27","07/1994","Single","English","A little bit of French","Male","White or Caucasian","No","Undergraduate degree","No, currently not in school","N/A","N/A","N/A","4","3","2","2","","0.83333334","stim/H200.jpg","76","76","0.900000004","4","1","4","","4","4","4","0","2","3","3","4","0","0","0","0","6","6","0","6","6","0","10","2","3","6","1","5","5","5","1","5","5","5","1","1","2","0","5","3","3","3","0","5","0","3","3","0","3","1","6","3","3","0","3","3","6","6","0","3","3","1","2","2","2","agree","359","","","","","","","","<div style=""font-size:60px;"">?</div>","76","20","1","0.8"
"image-keyboard-response","74","448623","0.0-11.0-0.20","bcrgq9h6dd8dpnq","1","6127bfccad93004b373846e9","27","07/1994","Single","English","A little bit of French","Male","White or Caucasian","No","Undergraduate degree","No, currently not in school","N/A","N/A","N/A","4","3","2","2","","0.83333334","stim/H200.jpg","76","76","0.900000004","4","1","4","","4","4","4","0","2","3","3","4","0","0","0","0","6","6","0","6","6","0","10","2","3","6","1","5","5","5","1","5","5","5","1","1","2","0","5","3","3","3","0","5","0","3","3","0","3","1","6","3","3","0","3","3","6","6","0","3","3","1","2","2","2","agree","null","","","","","","","","stim/H070.jpg","null","","",""
"html-keyboard-response","75","448975","0.0-11.0-1.20","bcrgq9h6dd8dpnq","1","6127bfccad93004b373846e9","27","07/1994","Single","English","A little bit of French","Male","White or Caucasian","No","Undergraduate degree","No, currently not in school","N/A","N/A","N/A","4","3","2","2","","0.83333334","stim/H200.jpg","76","76","0.900000004","4","1","4","","4","4","4","0","2","3","3","4","0","0","0","0","6","6","0","6","6","0","10","2","3","6","1","5","5","5","1","5","5","5","1","1","2","0","5","3","3","3","0","5","0","3","3","0","3","1","6","3","3","0","3","3","6","6","0","3","3","1","2","2","2","agree","352","","","","","","","","<div style=""font-size:60px;"">?</div>","76","21","1","0.8"
"image-keyboard-response","76","450000","0.0-11.0-0.21","bcrgq9h6dd8dpnq","1","6127bfccad93004b373846e9","27","07/1994","Single","English","A little bit of French","Male","White or Caucasian","No","Undergraduate degree","No, currently not in school","N/A","N/A","N/A","4","3","2","2","","0.83333334","stim/H200.jpg","76","76","0.900000004","4","1","4","","4","4","4","0","2","3","3","4","0","0","0","0","6","6","0","6","6","0","10","2","3","6","1","5","5","5","1","5","5","5","1","1","2","0","5","3","3","3","0","5","0","3","3","0","3","1","6","3","3","0","3","3","6","6","0","3","3","1","2","2","2","agree","null","","","","","","","","stim/H170.jpg","null","","",""
"html-keyboard-response","77","450273","0.0-11.0-1.21","bcrgq9h6dd8dpnq","1","6127bfccad93004b373846e9","27","07/1994","Single","English","A little bit of French","Male","White or Caucasian","No","Undergraduate degree","No, currently not in school","N/A","N/A","N/A","4","3","2","2","","0.83333334","stim/H200.jpg","76","76","0.900000004","4","1","4","","4","4","4","0","2","3","3","4","0","0","0","0","6","6","0","6","6","0","10","2","3","6","1","5","5","5","1","5","5","5","1","1","2","0","5","3","3","3","0","5","0","3","3","0","3","1","6","3","3","0","3","3","6","6","0","3","3","1","2","2","2","agree","272","","","","","","","","<div style=""font-size:60px;"">?</div>","76","22","1","0.8"
"image-keyboard-response","78","451284","0.0-11.0-0.22","bcrgq9h6dd8dpnq","1","6127bfccad93004b373846e9","27","07/1994","Single","English","A little bit of French","Male","White or Caucasian","No","Undergraduate degree","No, currently not in school","N/A","N/A","N/A","4","3","2","2","","0.83333334","stim/H200.jpg","76","76","0.900000004","4","1","4","","4","4","4","0","2","3","3","4","0","0","0","0","6","6","0","6","6","0","10","2","3","6","1","5","5","5","1","5","5","5","1","1","2","0","5","3","3","3","0","5","0","3","3","0","3","1","6","3","3","0","3","3","6","6","0","3","3","1","2","2","2","agree","null","","","","","","","","stim/H290.jpg","null","","",""
"html-keyboard-response","79","451535","0.0-11.0-1.22","bcrgq9h6dd8dpnq","1","6127bfccad93004b373846e9","27","07/1994","Single","English","A little bit of French","Male","White or Caucasian","No","Undergraduate degree","No, currently not in school","N/A","N/A","N/A","4","3","2","2","","0.83333334","stim/H200.jpg","76","76","0.900000004","4","1","4","","4","4","4","0","2","3","3","4","0","0","0","0","6","6","0","6","6","0","10","2","3","6","1","5","5","5","1","5","5","5","1","1","2","0","5","3","3","3","0","5","0","3","3","0","3","1","6","3","3","0","3","3","6","6","0","3","3","1","2","2","2","agree","250","","","","","","","","<div style=""font-size:60px;"">?</div>","76","23","1","0.8"
"image-keyboard-response","80","452556","0.0-11.0-0.23","bcrgq9h6dd8dpnq","1","6127bfccad93004b373846e9","27","07/1994","Single","English","A little bit of French","Male","White or Caucasian","No","Undergraduate degree","No, currently not in school","N/A","N/A","N/A","4","3","2","2","","0.83333334","stim/H200.jpg","76","76","0.900000004","4","1","4","","4","4","4","0","2","3","3","4","0","0","0","0","6","6","0","6","6","0","10","2","3","6","1","5","5","5","1","5","5","5","1","1","2","0","5","3","3","3","0","5","0","3","3","0","3","1","6","3","3","0","3","3","6","6","0","3","3","1","2","2","2","agree","null","","","","","","","","stim/H150.jpg","null","","",""
"html-keyboard-response","81","452824","0.0-11.0-1.23","bcrgq9h6dd8dpnq","1","6127bfccad93004b373846e9","27","07/1994","Single","English","A little bit of French","Male","White or Caucasian","No","Undergraduate degree","No, currently not in school","N/A","N/A","N/A","4","3","2","2","","0.83333334","stim/H200.jpg","76","76","0.900000004","4","1","4","","4","4","4","0","2","3","3","4","0","0","0","0","6","6","0","6","6","0","10","2","3","6","1","5","5","5","1","5","5","5","1","1","2","0","5","3","3","3","0","5","0","3","3","0","3","1","6","3","3","0","3","3","6","6","0","3","3","1","2","2","2","agree","268","","","","","","","","<div style=""font-size:60px;"">?</div>","76","24","1","0.8"
"image-keyboard-response","82","453842","0.0-11.0-0.24","bcrgq9h6dd8dpnq","1","6127bfccad93004b373846e9","27","07/1994","Single","English","A little bit of French","Male","White or Caucasian","No","Undergraduate degree","No, currently not in school","N/A","N/A","N/A","4","3","2","2","","0.83333334","stim/H200.jpg","76","76","0.900000004","4","1","4","","4","4","4","0","2","3","3","4","0","0","0","0","6","6","0","6","6","0","10","2","3","6","1","5","5","5","1","5","5","5","1","1","2","0","5","3","3","3","0","5","0","3","3","0","3","1","6","3","3","0","3","3","6","6","0","3","3","1","2","2","2","agree","null","","","","","","","","stim/H160.jpg","null","","",""
"html-keyboard-response","83","454506","0.0-11.0-1.24","bcrgq9h6dd8dpnq","1","6127bfccad93004b373846e9","27","07/1994","Single","English","A little bit of French","Male","White or Caucasian","No","Undergraduate degree","No, currently not in school","N/A","N/A","N/A","4","3","2","2","","0.83333334","stim/H200.jpg","76","76","0.900000004","4","1","4","","4","4","4","0","2","3","3","4","0","0","0","0","6","6","0","6","6","0","10","2","3","6","1","5","5","5","1","5","5","5","1","1","2","0","5","3","3","3","0","5","0","3","3","0","3","1","6","3","3","0","3","3","6","6","0","3","3","1","2","2","2","agree","663","","","","","","","","<div style=""font-size:60px;"">?</div>","76","25","1","0.8"
"image-keyboard-response","84","455528","0.0-11.0-0.25","bcrgq9h6dd8dpnq","1","6127bfccad93004b373846e9","27","07/1994","Single","English","A little bit of French","Male","White or Caucasian","No","Undergraduate degree","No, currently not in school","N/A","N/A","N/A","4","3","2","2","","0.83333334","stim/H200.jpg","76","76","0.900000004","4","1","4","","4","4","4","0","2","3","3","4","0","0","0","0","6","6","0","6","6","0","10","2","3","6","1","5","5","5","1","5","5","5","1","1","2","0","5","3","3","3","0","5","0","3","3","0","3","1","6","3","3","0","3","3","6","6","0","3","3","1","2","2","2","agree","null","","","","","","","","stim/H050.jpg","null","","",""
"html-keyboard-response","85","456640","0.0-11.0-1.25","bcrgq9h6dd8dpnq","1","6127bfccad93004b373846e9","27","07/1994","Single","English","A little bit of French","Male","White or Caucasian","No","Undergraduate degree","No, currently not in school","N/A","N/A","N/A","4","3","2","2","","0.83333334","stim/H200.jpg","76","76","0.900000004","4","1","4","","4","4","4","0","2","3","3","4","0","0","0","0","6","6","0","6","6","0","10","2","3","6","1","5","5","5","1","5","5","5","1","1","2","0","5","3","3","3","0","5","0","3","3","0","3","1","6","3","3","0","3","3","6","6","0","3","3","1","2","2","2","agree","1111","","","","","","","","<div style=""font-size:60px;"">?</div>","76","26","1","0.8"
"image-keyboard-response","86","457679","0.0-11.0-0.26","bcrgq9h6dd8dpnq","1","6127bfccad93004b373846e9","27","07/1994","Single","English","A little bit of French","Male","White or Caucasian","No","Undergraduate degree","No, currently not in school","N/A","N/A","N/A","4","3","2","2","","0.83333334","stim/H200.jpg","76","76","0.900000004","4","1","4","","4","4","4","0","2","3","3","4","0","0","0","0","6","6","0","6","6","0","10","2","3","6","1","5","5","5","1","5","5","5","1","1","2","0","5","3","3","3","0","5","0","3","3","0","3","1","6","3","3","0","3","3","6","6","0","3","3","1","2","2","2","agree","null","","","","","","","","stim/H260.jpg","null","","",""
"html-keyboard-response","87","458017","0.0-11.0-1.26","bcrgq9h6dd8dpnq","1","6127bfccad93004b373846e9","27","07/1994","Single","English","A little bit of French","Male","White or Caucasian","No","Undergraduate degree","No, currently not in school","N/A","N/A","N/A","4","3","2","2","","0.83333334","stim/H200.jpg","76","76","0.900000004","4","1","4","","4","4","4","0","2","3","3","4","0","0","0","0","6","6","0","6","6","0","10","2","3","6","1","5","5","5","1","5","5","5","1","1","2","0","5","3","3","3","0","5","0","3","3","0","3","1","6","3","3","0","3","3","6","6","0","3","3","1","2","2","2","agree","338","","","","","","","","<div style=""font-size:60px;"">?</div>","76","27","1","0.8"
"image-keyboard-response","88","459042","0.0-11.0-0.27","bcrgq9h6dd8dpnq","1","6127bfccad93004b373846e9","27","07/1994","Single","English","A little bit of French","Male","White or Caucasian","No","Undergraduate degree","No, currently not in school","N/A","N/A","N/A","4","3","2","2","","0.83333334","stim/H200.jpg","76","76","0.900000004","4","1","4","","4","4","4","0","2","3","3","4","0","0","0","0","6","6","0","6","6","0","10","2","3","6","1","5","5","5","1","5","5","5","1","1","2","0","5","3","3","3","0","5","0","3","3","0","3","1","6","3","3","0","3","3","6","6","0","3","3","1","2","2","2","agree","null","","","","","","","","stim/H030.jpg","null","","",""
"html-keyboard-response","89","459639","0.0-11.0-1.27","bcrgq9h6dd8dpnq","1","6127bfccad93004b373846e9","27","07/1994","Single","English","A little bit of French","Male","White or Caucasian","No","Undergraduate degree","No, currently not in school","N/A","N/A","N/A","4","3","2","2","","0.83333334","stim/H200.jpg","76","76","0.900000004","4","1","4","","4","4","4","0","2","3","3","4","0","0","0","0","6","6","0","6","6","0","10","2","3","6","1","5","5","5","1","5","5","5","1","1","2","0","5","3","3","3","0","5","0","3","3","0","3","1","6","3","3","0","3","3","6","6","0","3","3","1","2","2","2","agree","597","","","","","","","","<div style=""font-size:60px;"">?</div>","65","28","1","0.8"
"image-keyboard-response","90","460652","0.0-11.0-0.28","bcrgq9h6dd8dpnq","1","6127bfccad93004b373846e9","27","07/1994","Single","English","A little bit of French","Male","White or Caucasian","No","Undergraduate degree","No, currently not in school","N/A","N/A","N/A","4","3","2","2","","0.83333334","stim/H200.jpg","76","76","0.900000004","4","1","4","","4","4","4","0","2","3","3","4","0","0","0","0","6","6","0","6","6","0","10","2","3","6","1","5","5","5","1","5","5","5","1","1","2","0","5","3","3","3","0","5","0","3","3","0","3","1","6","3","3","0","3","3","6","6","0","3","3","1","2","2","2","agree","null","","","","","","","","stim/H100.jpg","null","","",""
"html-keyboard-response","91","462047","0.0-11.0-1.28","bcrgq9h6dd8dpnq","1","6127bfccad93004b373846e9","27","07/1994","Single","English","A little bit of French","Male","White or Caucasian","No","Undergraduate degree","No, currently not in school","N/A","N/A","N/A","4","3","2","2","","0.83333334","stim/H200.jpg","76","76","0.900000004","4","1","4","","4","4","4","0","2","3","3","4","0","0","0","0","6","6","0","6","6","0","10","2","3","6","1","5","5","5","1","5","5","5","1","1","2","0","5","3","3","3","0","5","0","3","3","0","3","1","6","3","3","0","3","3","6","6","0","3","3","1","2","2","2","agree","1394","","","","","","","","<div style=""font-size:60px;"">?</div>","65","29","1","0.8"
"image-keyboard-response","92","463067","0.0-11.0-0.29","bcrgq9h6dd8dpnq","1","6127bfccad93004b373846e9","27","07/1994","Single","English","A little bit of French","Male","White or Caucasian","No","Undergraduate degree","No, currently not in school","N/A","N/A","N/A","4","3","2","2","","0.83333334","stim/H200.jpg","76","76","0.900000004","4","1","4","","4","4","4","0","2","3","3","4","0","0","0","0","6","6","0","6","6","0","10","2","3","6","1","5","5","5","1","5","5","5","1","1","2","0","5","3","3","3","0","5","0","3","3","0","3","1","6","3","3","0","3","3","6","6","0","3","3","1","2","2","2","agree","null","","","","","","","","stim/T070.jpg","null","","",""
"html-keyboard-response","93","463391","0.0-11.0-1.29","bcrgq9h6dd8dpnq","1","6127bfccad93004b373846e9","27","07/1994","Single","English","A little bit of French","Male","White or Caucasian","No","Undergraduate degree","No, currently not in school","N/A","N/A","N/A","4","3","2","2","","0.83333334","stim/H200.jpg","76","76","0.900000004","4","1","4","","4","4","4","0","2","3","3","4","0","0","0","0","6","6","0","6","6","0","10","2","3","6","1","5","5","5","1","5","5","5","1","1","2","0","5","3","3","3","0","5","0","3","3","0","3","1","6","3","3","0","3","3","6","6","0","3","3","1","2","2","2","agree","323","","","","","","","","<div style=""font-size:60px;"">?</div>","65","30","1","0.8"
"image-keyboard-response","94","464416","0.0-11.0-0.30","bcrgq9h6dd8dpnq","1","6127bfccad93004b373846e9","27","07/1994","Single","English","A little bit of French","Male","White or Caucasian","No","Undergraduate degree","No, currently not in school","N/A","N/A","N/A","4","3","2","2","","0.83333334","stim/H200.jpg","76","76","0.900000004","4","1","4","","4","4","4","0","2","3","3","4","0","0","0","0","6","6","0","6","6","0","10","2","3","6","1","5","5","5","1","5","5","5","1","1","2","0","5","3","3","3","0","5","0","3","3","0","3","1","6","3","3","0","3","3","6","6","0","3","3","1","2","2","2","agree","null","","","","","","","","stim/H130.jpg","null","","",""
"html-keyboard-response","95","464978","0.0-11.0-1.30","bcrgq9h6dd8dpnq","1","6127bfccad93004b373846e9","27","07/1994","Single","English","A little bit of French","Male","White or Caucasian","No","Undergraduate degree","No, currently not in school","N/A","N/A","N/A","4","3","2","2","","0.83333334","stim/H200.jpg","76","76","0.900000004","4","1","4","","4","4","4","0","2","3","3","4","0","0","0","0","6","6","0","6","6","0","10","2","3","6","1","5","5","5","1","5","5","5","1","1","2","0","5","3","3","3","0","5","0","3","3","0","3","1","6","3","3","0","3","3","6","6","0","3","3","1","2","2","2","agree","561","","","","","","","","<div style=""font-size:60px;"">?</div>","76","31","1","0.8"
"image-keyboard-response","96","465995","0.0-11.0-0.31","bcrgq9h6dd8dpnq","1","6127bfccad93004b373846e9","27","07/1994","Single","English","A little bit of French","Male","White or Caucasian","No","Undergraduate degree","No, currently not in school","N/A","N/A","N/A","4","3","2","2","","0.83333334","stim/H200.jpg","76","76","0.900000004","4","1","4","","4","4","4","0","2","3","3","4","0","0","0","0","6","6","0","6","6","0","10","2","3","6","1","5","5","5","1","5","5","5","1","1","2","0","5","3","3","3","0","5","0","3","3","0","3","1","6","3","3","0","3","3","6","6","0","3","3","1","2","2","2","agree","null","","","","","","","","stim/T100.jpg","null","","",""
"html-keyboard-response","97","466263","0.0-11.0-1.31","bcrgq9h6dd8dpnq","1","6127bfccad93004b373846e9","27","07/1994","Single","English","A little bit of French","Male","White or Caucasian","No","Undergraduate degree","No, currently not in school","N/A","N/A","N/A","4","3","2","2","","0.83333334","stim/H200.jpg","76","76","0.900000004","4","1","4","","4","4","4","0","2","3","3","4","0","0","0","0","6","6","0","6","6","0","10","2","3","6","1","5","5","5","1","5","5","5","1","1","2","0","5","3","3","3","0","5","0","3","3","0","3","1","6","3","3","0","3","3","6","6","0","3","3","1","2","2","2","agree","266","","","","","","","","<div style=""font-size:60px;"">?</div>","65","32","1","0.8"
"image-keyboard-response","98","467276","0.0-11.0-0.32","bcrgq9h6dd8dpnq","1","6127bfccad93004b373846e9","27","07/1994","Single","English","A little bit of French","Male","White or Caucasian","No","Undergraduate degree","No, currently not in school","N/A","N/A","N/A","4","3","2","2","","0.83333334","stim/H200.jpg","76","76","0.900000004","4","1","4","","4","4","4","0","2","3","3","4","0","0","0","0","6","6","0","6","6","0","10","2","3","6","1","5","5","5","1","5","5","5","1","1","2","0","5","3","3","3","0","5","0","3","3","0","3","1","6","3","3","0","3","3","6","6","0","3","3","1","2","2","2","agree","null","","","","","","","","stim/H110.jpg","null","","",""
"html-keyboard-response","99","467744","0.0-11.0-1.32","bcrgq9h6dd8dpnq","1","6127bfccad93004b373846e9","27","07/1994","Single","English","A little bit of French","Male","White or Caucasian","No","Undergraduate degree","No, currently not in school","N/A","N/A","N/A","4","3","2","2","","0.83333334","stim/H200.jpg","76","76","0.900000004","4","1","4","","4","4","4","0","2","3","3","4","0","0","0","0","6","6","0","6","6","0","10","2","3","6","1","5","5","5","1","5","5","5","1","1","2","0","5","3","3","3","0","5","0","3","3","0","3","1","6","3","3","0","3","3","6","6","0","3","3","1","2","2","2","agree","467","","","","","","","","<div style=""font-size:60px;"">?</div>","76","33","1","0.8"
"image-keyboard-response","100","468760","0.0-11.0-0.33","bcrgq9h6dd8dpnq","1","6127bfccad93004b373846e9","27","07/1994","Single","English","A little bit of French","Male","White or Caucasian","No","Undergraduate degree","No, currently not in school","N/A","N/A","N/A","4","3","2","2","","0.83333334","stim/H200.jpg","76","76","0.900000004","4","1","4","","4","4","4","0","2","3","3","4","0","0","0","0","6","6","0","6","6","0","10","2","3","6","1","5","5","5","1","5","5","5","1","1","2","0","5","3","3","3","0","5","0","3","3","0","3","1","6","3","3","0","3","3","6","6","0","3","3","1","2","2","2","agree","null","","","","","","","","stim/H010.jpg","null","","",""
"html-keyboard-response","101","470276","0.0-11.0-1.33","bcrgq9h6dd8dpnq","1","6127bfccad93004b373846e9","27","07/1994","Single","English","A little bit of French","Male","White or Caucasian","No","Undergraduate degree","No, currently not in school","N/A","N/A","N/A","4","3","2","2","","0.83333334","stim/H200.jpg","76","76","0.900000004","4","1","4","","4","4","4","0","2","3","3","4","0","0","0","0","6","6","0","6","6","0","10","2","3","6","1","5","5","5","1","5","5","5","1","1","2","0","5","3","3","3","0","5","0","3","3","0","3","1","6","3","3","0","3","3","6","6","0","3","3","1","2","2","2","agree","1514","","","","","","","","<div style=""font-size:60px;"">?</div>","76","34","1","0.8"
"image-keyboard-response","102","471299","0.0-11.0-0.34","bcrgq9h6dd8dpnq","1","6127bfccad93004b373846e9","27","07/1994","Single","English","A little bit of French","Male","White or Caucasian","No","Undergraduate degree","No, currently not in school","N/A","N/A","N/A","4","3","2","2","","0.83333334","stim/H200.jpg","76","76","0.900000004","4","1","4","","4","4","4","0","2","3","3","4","0","0","0","0","6","6","0","6","6","0","10","2","3","6","1","5","5","5","1","5","5","5","1","1","2","0","5","3","3","3","0","5","0","3","3","0","3","1","6","3","3","0","3","3","6","6","0","3","3","1","2","2","2","agree","null","","","","","","","","stim/H170.jpg","null","","",""
"html-keyboard-response","103","471560","0.0-11.0-1.34","bcrgq9h6dd8dpnq","1","6127bfccad93004b373846e9","27","07/1994","Single","English","A little bit of French","Male","White or Caucasian","No","Undergraduate degree","No, currently not in school","N/A","N/A","N/A","4","3","2","2","","0.83333334","stim/H200.jpg","76","76","0.900000004","4","1","4","","4","4","4","0","2","3","3","4","0","0","0","0","6","6","0","6","6","0","10","2","3","6","1","5","5","5","1","5","5","5","1","1","2","0","5","3","3","3","0","5","0","3","3","0","3","1","6","3","3","0","3","3","6","6","0","3","3","1","2","2","2","agree","260","","","","","","","","<div style=""font-size:60px;"">?</div>","76","35","1","0.8"
"image-keyboard-response","104","472586","0.0-11.0-0.35","bcrgq9h6dd8dpnq","1","6127bfccad93004b373846e9","27","07/1994","Single","English","A little bit of French","Male","White or Caucasian","No","Undergraduate degree","No, currently not in school","N/A","N/A","N/A","4","3","2","2","","0.83333334","stim/H200.jpg","76","76","0.900000004","4","1","4","","4","4","4","0","2","3","3","4","0","0","0","0","6","6","0","6","6","0","10","2","3","6","1","5","5","5","1","5","5","5","1","1","2","0","5","3","3","3","0","5","0","3","3","0","3","1","6","3","3","0","3","3","6","6","0","3","3","1","2","2","2","agree","null","","","","","","","","stim/H170.jpg","null","","",""
"html-keyboard-response","105","472919","0.0-11.0-1.35","bcrgq9h6dd8dpnq","1","6127bfccad93004b373846e9","27","07/1994","Single","English","A little bit of French","Male","White or Caucasian","No","Undergraduate degree","No, currently not in school","N/A","N/A","N/A","4","3","2","2","","0.83333334","stim/H200.jpg","76","76","0.900000004","4","1","4","","4","4","4","0","2","3","3","4","0","0","0","0","6","6","0","6","6","0","10","2","3","6","1","5","5","5","1","5","5","5","1","1","2","0","5","3","3","3","0","5","0","3","3","0","3","1","6","3","3","0","3","3","6","6","0","3","3","1","2","2","2","agree","332","","","","","","","","<div style=""font-size:60px;"">?</div>","76","36","1","0.8"
"image-keyboard-response","106","473934","0.0-11.0-0.36","bcrgq9h6dd8dpnq","1","6127bfccad93004b373846e9","27","07/1994","Single","English","A little bit of French","Male","White or Caucasian","No","Undergraduate degree","No, currently not in school","N/A","N/A","N/A","4","3","2","2","","0.83333334","stim/H200.jpg","76","76","0.900000004","4","1","4","","4","4","4","0","2","3","3","4","0","0","0","0","6","6","0","6","6","0","10","2","3","6","1","5","5","5","1","5","5","5","1","1","2","0","5","3","3","3","0","5","0","3","3","0","3","1","6","3","3","0","3","3","6","6","0","3","3","1","2","2","2","agree","null","","","","","","","","stim/H270.jpg","null","","",""
"html-keyboard-response","107","474000","0.0-11.0-1.36","bcrgq9h6dd8dpnq","1","6127bfccad93004b373846e9","27","07/1994","Single","English","A little bit of French","Male","White or Caucasian","No","Undergraduate degree","No, currently not in school","N/A","N/A","N/A","4","3","2","2","","0.83333334","stim/H200.jpg","76","76","0.900000004","4","1","4","","4","4","4","0","2","3","3","4","0","0","0","0","6","6","0","6","6","0","10","2","3","6","1","5","5","5","1","5","5","5","1","1","2","0","5","3","3","3","0","5","0","3","3","0","3","1","6","3","3","0","3","3","6","6","0","3","3","1","2","2","2","agree","66","","","","","","","","<div style=""font-size:60px;"">?</div>","76","37","1","0.8"
"image-keyboard-response","108","475013","0.0-11.0-0.37","bcrgq9h6dd8dpnq","1","6127bfccad93004b373846e9","27","07/1994","Single","English","A little bit of French","Male","White or Caucasian","No","Undergraduate degree","No, currently not in school","N/A","N/A","N/A","4","3","2","2","","0.83333334","stim/H200.jpg","76","76","0.900000004","4","1","4","","4","4","4","0","2","3","3","4","0","0","0","0","6","6","0","6","6","0","10","2","3","6","1","5","5","5","1","5","5","5","1","1","2","0","5","3","3","3","0","5","0","3","3","0","3","1","6","3","3","0","3","3","6","6","0","3","3","1","2","2","2","agree","null","","","","","","","","stim/H070.jpg","null","","",""
"html-keyboard-response","109","475135","0.0-11.0-1.37","bcrgq9h6dd8dpnq","1","6127bfccad93004b373846e9","27","07/1994","Single","English","A little bit of French","Male","White or Caucasian","No","Undergraduate degree","No, currently not in school","N/A","N/A","N/A","4","3","2","2","","0.83333334","stim/H200.jpg","76","76","0.900000004","4","1","4","","4","4","4","0","2","3","3","4","0","0","0","0","6","6","0","6","6","0","10","2","3","6","1","5","5","5","1","5","5","5","1","1","2","0","5","3","3","3","0","5","0","3","3","0","3","1","6","3","3","0","3","3","6","6","0","3","3","1","2","2","2","agree","120","","","","","","","","<div style=""font-size:60px;"">?</div>","65","38","1","0.8"
"image-keyboard-response","110","476158","0.0-11.0-0.38","bcrgq9h6dd8dpnq","1","6127bfccad93004b373846e9","27","07/1994","Single","English","A little bit of French","Male","White or Caucasian","No","Undergraduate degree","No, currently not in school","N/A","N/A","N/A","4","3","2","2","","0.83333334","stim/H200.jpg","76","76","0.900000004","4","1","4","","4","4","4","0","2","3","3","4","0","0","0","0","6","6","0","6","6","0","10","2","3","6","1","5","5","5","1","5","5","5","1","1","2","0","5","3","3","3","0","5","0","3","3","0","3","1","6","3","3","0","3","3","6","6","0","3","3","1","2","2","2","agree","null","","","","","","","","stim/H130.jpg","null","","",""
"html-keyboard-response","111","476587","0.0-11.0-1.38","bcrgq9h6dd8dpnq","1","6127bfccad93004b373846e9","27","07/1994","Single","English","A little bit of French","Male","White or Caucasian","No","Undergraduate degree","No, currently not in school","N/A","N/A","N/A","4","3","2","2","","0.83333334","stim/H200.jpg","76","76","0.900000004","4","1","4","","4","4","4","0","2","3","3","4","0","0","0","0","6","6","0","6","6","0","10","2","3","6","1","5","5","5","1","5","5","5","1","1","2","0","5","3","3","3","0","5","0","3","3","0","3","1","6","3","3","0","3","3","6","6","0","3","3","1","2","2","2","agree","429","","","","","","","","<div style=""font-size:60px;"">?</div>","65","39","1","0.8"
"image-keyboard-response","112","477612","0.0-11.0-0.39","bcrgq9h6dd8dpnq","1","6127bfccad93004b373846e9","27","07/1994","Single","English","A little bit of French","Male","White or Caucasian","No","Undergraduate degree","No, currently not in school","N/A","N/A","N/A","4","3","2","2","","0.83333334","stim/H200.jpg","76","76","0.900000004","4","1","4","","4","4","4","0","2","3","3","4","0","0","0","0","6","6","0","6","6","0","10","2","3","6","1","5","5","5","1","5","5","5","1","1","2","0","5","3","3","3","0","5","0","3","3","0","3","1","6","3","3","0","3","3","6","6","0","3","3","1","2","2","2","agree","null","","","","","","","","stim/H180.jpg","null","","",""
"html-keyboard-response","113","477860","0.0-11.0-1.39","bcrgq9h6dd8dpnq","1","6127bfccad93004b373846e9","27","07/1994","Single","English","A little bit of French","Male","White or Caucasian","No","Undergraduate degree","No, currently not in school","N/A","N/A","N/A","4","3","2","2","","0.83333334","stim/H200.jpg","76","76","0.900000004","4","1","4","","4","4","4","0","2","3","3","4","0","0","0","0","6","6","0","6","6","0","10","2","3","6","1","5","5","5","1","5","5","5","1","1","2","0","5","3","3","3","0","5","0","3","3","0","3","1","6","3","3","0","3","3","6","6","0","3","3","1","2","2","2","agree","246","","","","","","","","<div style=""font-size:60px;"">?</div>","76","40","1","0.8"
"image-keyboard-response","114","478885","0.0-11.0-0.40","bcrgq9h6dd8dpnq","1","6127bfccad93004b373846e9","27","07/1994","Single","English","A little bit of French","Male","White or Caucasian","No","Undergraduate degree","No, currently not in school","N/A","N/A","N/A","4","3","2","2","","0.83333334","stim/H200.jpg","76","76","0.900000004","4","1","4","","4","4","4","0","2","3","3","4","0","0","0","0","6","6","0","6","6","0","10","2","3","6","1","5","5","5","1","5","5","5","1","1","2","0","5","3","3","3","0","5","0","3","3","0","3","1","6","3","3","0","3","3","6","6","0","3","3","1","2","2","2","agree","null","","","","","","","","stim/T210.jpg","null","","",""
"html-keyboard-response","115","479059","0.0-11.0-1.40","bcrgq9h6dd8dpnq","1","6127bfccad93004b373846e9","27","07/1994","Single","English","A little bit of French","Male","White or Caucasian","No","Undergraduate degree","No, currently not in school","N/A","N/A","N/A","4","3","2","2","","0.83333334","stim/H200.jpg","76","76","0.900000004","4","1","4","","4","4","4","0","2","3","3","4","0","0","0","0","6","6","0","6","6","0","10","2","3","6","1","5","5","5","1","5","5","5","1","1","2","0","5","3","3","3","0","5","0","3","3","0","3","1","6","3","3","0","3","3","6","6","0","3","3","1","2","2","2","agree","174","","","","","","","","<div style=""font-size:60px;"">?</div>","65","41","1","0.8"
"image-keyboard-response","116","480076","0.0-11.0-0.41","bcrgq9h6dd8dpnq","1","6127bfccad93004b373846e9","27","07/1994","Single","English","A little bit of French","Male","White or Caucasian","No","Undergraduate degree","No, currently not in school","N/A","N/A","N/A","4","3","2","2","","0.83333334","stim/H200.jpg","76","76","0.900000004","4","1","4","","4","4","4","0","2","3","3","4","0","0","0","0","6","6","0","6","6","0","10","2","3","6","1","5","5","5","1","5","5","5","1","1","2","0","5","3","3","3","0","5","0","3","3","0","3","1","6","3","3","0","3","3","6","6","0","3","3","1","2","2","2","agree","null","","","","","","","","stim/H130.jpg","null","","",""
"html-keyboard-response","117","480226","0.0-11.0-1.41","bcrgq9h6dd8dpnq","1","6127bfccad93004b373846e9","27","07/1994","Single","English","A little bit of French","Male","White or Caucasian","No","Undergraduate degree","No, currently not in school","N/A","N/A","N/A","4","3","2","2","","0.83333334","stim/H200.jpg","76","76","0.900000004","4","1","4","","4","4","4","0","2","3","3","4","0","0","0","0","6","6","0","6","6","0","10","2","3","6","1","5","5","5","1","5","5","5","1","1","2","0","5","3","3","3","0","5","0","3","3","0","3","1","6","3","3","0","3","3","6","6","0","3","3","1","2","2","2","agree","149","","","","","","","","<div style=""font-size:60px;"">?</div>","76","42","1","0.8"
"image-keyboard-response","118","481252","0.0-11.0-0.42","bcrgq9h6dd8dpnq","1","6127bfccad93004b373846e9","27","07/1994","Single","English","A little bit of French","Male","White or Caucasian","No","Undergraduate degree","No, currently not in school","N/A","N/A","N/A","4","3","2","2","","0.83333334","stim/H200.jpg","76","76","0.900000004","4","1","4","","4","4","4","0","2","3","3","4","0","0","0","0","6","6","0","6","6","0","10","2","3","6","1","5","5","5","1","5","5","5","1","1","2","0","5","3","3","3","0","5","0","3","3","0","3","1","6","3","3","0","3","3","6","6","0","3","3","1","2","2","2","agree","null","","","","","","","","stim/H190.jpg","null","","",""
"html-keyboard-response","119","481357","0.0-11.0-1.42","bcrgq9h6dd8dpnq","1","6127bfccad93004b373846e9","27","07/1994","Single","English","A little bit of French","Male","White or Caucasian","No","Undergraduate degree","No, currently not in school","N/A","N/A","N/A","4","3","2","2","","0.83333334","stim/H200.jpg","76","76","0.900000004","4","1","4","","4","4","4","0","2","3","3","4","0","0","0","0","6","6","0","6","6","0","10","2","3","6","1","5","5","5","1","5","5","5","1","1","2","0","5","3","3","3","0","5","0","3","3","0","3","1","6","3","3","0","3","3","6","6","0","3","3","1","2","2","2","agree","105","","","","","","","","<div style=""font-size:60px;"">?</div>","76","43","1","0.8"
"image-keyboard-response","120","482381","0.0-11.0-0.43","bcrgq9h6dd8dpnq","1","6127bfccad93004b373846e9","27","07/1994","Single","English","A little bit of French","Male","White or Caucasian","No","Undergraduate degree","No, currently not in school","N/A","N/A","N/A","4","3","2","2","","0.83333334","stim/H200.jpg","76","76","0.900000004","4","1","4","","4","4","4","0","2","3","3","4","0","0","0","0","6","6","0","6","6","0","10","2","3","6","1","5","5","5","1","5","5","5","1","1","2","0","5","3","3","3","0","5","0","3","3","0","3","1","6","3","3","0","3","3","6","6","0","3","3","1","2","2","2","agree","null","","","","","","","","stim/T160.jpg","null","","",""
"html-keyboard-response","121","482442","0.0-11.0-1.43","bcrgq9h6dd8dpnq","1","6127bfccad93004b373846e9","27","07/1994","Single","English","A little bit of French","Male","White or Caucasian","No","Undergraduate degree","No, currently not in school","N/A","N/A","N/A","4","3","2","2","","0.83333334","stim/H200.jpg","76","76","0.900000004","4","1","4","","4","4","4","0","2","3","3","4","0","0","0","0","6","6","0","6","6","0","10","2","3","6","1","5","5","5","1","5","5","5","1","1","2","0","5","3","3","3","0","5","0","3","3","0","3","1","6","3","3","0","3","3","6","6","0","3","3","1","2","2","2","agree","59","","","","","","","","<div style=""font-size:60px;"">?</div>","65","44","1","0.8"
"image-keyboard-response","122","483466","0.0-11.0-0.44","bcrgq9h6dd8dpnq","1","6127bfccad93004b373846e9","27","07/1994","Single","English","A little bit of French","Male","White or Caucasian","No","Undergraduate degree","No, currently not in school","N/A","N/A","N/A","4","3","2","2","","0.83333334","stim/H200.jpg","76","76","0.900000004","4","1","4","","4","4","4","0","2","3","3","4","0","0","0","0","6","6","0","6","6","0","10","2","3","6","1","5","5","5","1","5","5","5","1","1","2","0","5","3","3","3","0","5","0","3","3","0","3","1","6","3","3","0","3","3","6","6","0","3","3","1","2","2","2","agree","null","","","","","","","","stim/H110.jpg","null","","",""
"html-keyboard-response","123","484095","0.0-11.0-1.44","bcrgq9h6dd8dpnq","1","6127bfccad93004b373846e9","27","07/1994","Single","English","A little bit of French","Male","White or Caucasian","No","Undergraduate degree","No, currently not in school","N/A","N/A","N/A","4","3","2","2","","0.83333334","stim/H200.jpg","76","76","0.900000004","4","1","4","","4","4","4","0","2","3","3","4","0","0","0","0","6","6","0","6","6","0","10","2","3","6","1","5","5","5","1","5","5","5","1","1","2","0","5","3","3","3","0","5","0","3","3","0","3","1","6","3","3","0","3","3","6","6","0","3","3","1","2","2","2","agree","628","","","","","","","","<div style=""font-size:60px;"">?</div>","76","45","1","0.8"
"image-keyboard-response","124","485107","0.0-11.0-0.45","bcrgq9h6dd8dpnq","1","6127bfccad93004b373846e9","27","07/1994","Single","English","A little bit of French","Male","White or Caucasian","No","Undergraduate degree","No, currently not in school","N/A","N/A","N/A","4","3","2","2","","0.83333334","stim/H200.jpg","76","76","0.900000004","4","1","4","","4","4","4","0","2","3","3","4","0","0","0","0","6","6","0","6","6","0","10","2","3","6","1","5","5","5","1","5","5","5","1","1","2","0","5","3","3","3","0","5","0","3","3","0","3","1","6","3","3","0","3","3","6","6","0","3","3","1","2","2","2","agree","null","","","","","","","","stim/H090.jpg","null","","",""
"html-keyboard-response","125","485384","0.0-11.0-1.45","bcrgq9h6dd8dpnq","1","6127bfccad93004b373846e9","27","07/1994","Single","English","A little bit of French","Male","White or Caucasian","No","Undergraduate degree","No, currently not in school","N/A","N/A","N/A","4","3","2","2","","0.83333334","stim/H200.jpg","76","76","0.900000004","4","1","4","","4","4","4","0","2","3","3","4","0","0","0","0","6","6","0","6","6","0","10","2","3","6","1","5","5","5","1","5","5","5","1","1","2","0","5","3","3","3","0","5","0","3","3","0","3","1","6","3","3","0","3","3","6","6","0","3","3","1","2","2","2","agree","276","","","","","","","","<div style=""font-size:60px;"">?</div>","76","46","1","0.8"
"image-keyboard-response","126","486410","0.0-11.0-0.46","bcrgq9h6dd8dpnq","1","6127bfccad93004b373846e9","27","07/1994","Single","English","A little bit of French","Male","White or Caucasian","No","Undergraduate degree","No, currently not in school","N/A","N/A","N/A","4","3","2","2","","0.83333334","stim/H200.jpg","76","76","0.900000004","4","1","4","","4","4","4","0","2","3","3","4","0","0","0","0","6","6","0","6","6","0","10","2","3","6","1","5","5","5","1","5","5","5","1","1","2","0","5","3","3","3","0","5","0","3","3","0","3","1","6","3","3","0","3","3","6","6","0","3","3","1","2","2","2","agree","null","","","","","","","","stim/T130.jpg","null","","",""
"html-keyboard-response","127","486414","0.0-11.0-1.46","bcrgq9h6dd8dpnq","1","6127bfccad93004b373846e9","27","07/1994","Single","English","A little bit of French","Male","White or Caucasian","No","Undergraduate degree","No, currently not in school","N/A","N/A","N/A","4","3","2","2","","0.83333334","stim/H200.jpg","76","76","0.900000004","4","1","4","","4","4","4","0","2","3","3","4","0","0","0","0","6","6","0","6","6","0","10","2","3","6","1","5","5","5","1","5","5","5","1","1","2","0","5","3","3","3","0","5","0","3","3","0","3","1","6","3","3","0","3","3","6","6","0","3","3","1","2","2","2","agree","4","","","","","","","","<div style=""font-size:60px;"">?</div>","65","47","1","0.8"
"image-keyboard-response","128","487430","0.0-11.0-0.47","bcrgq9h6dd8dpnq","1","6127bfccad93004b373846e9","27","07/1994","Single","English","A little bit of French","Male","White or Caucasian","No","Undergraduate degree","No, currently not in school","N/A","N/A","N/A","4","3","2","2","","0.83333334","stim/H200.jpg","76","76","0.900000004","4","1","4","","4","4","4","0","2","3","3","4","0","0","0","0","6","6","0","6","6","0","10","2","3","6","1","5","5","5","1","5","5","5","1","1","2","0","5","3","3","3","0","5","0","3","3","0","3","1","6","3","3","0","3","3","6","6","0","3","3","1","2","2","2","agree","null","","","","","","","","stim/T160.jpg","null","","",""
"html-keyboard-response","129","487912","0.0-11.0-1.47","bcrgq9h6dd8dpnq","1","6127bfccad93004b373846e9","27","07/1994","Single","English","A little bit of French","Male","White or Caucasian","No","Undergraduate degree","No, currently not in school","N/A","N/A","N/A","4","3","2","2","","0.83333334","stim/H200.jpg","76","76","0.900000004","4","1","4","","4","4","4","0","2","3","3","4","0","0","0","0","6","6","0","6","6","0","10","2","3","6","1","5","5","5","1","5","5","5","1","1","2","0","5","3","3","3","0","5","0","3","3","0","3","1","6","3","3","0","3","3","6","6","0","3","3","1","2","2","2","agree","483","","","","","","","","<div style=""font-size:60px;"">?</div>","65","48","1","0.8"
"image-keyboard-response","130","488932","0.0-11.0-0.48","bcrgq9h6dd8dpnq","1","6127bfccad93004b373846e9","27","07/1994","Single","English","A little bit of French","Male","White or Caucasian","No","Undergraduate degree","No, currently not in school","N/A","N/A","N/A","4","3","2","2","","0.83333334","stim/H200.jpg","76","76","0.900000004","4","1","4","","4","4","4","0","2","3","3","4","0","0","0","0","6","6","0","6","6","0","10","2","3","6","1","5","5","5","1","5","5","5","1","1","2","0","5","3","3","3","0","5","0","3","3","0","3","1","6","3","3","0","3","3","6","6","0","3","3","1","2","2","2","agree","null","","","","","","","","stim/H170.jpg","null","","",""
"html-keyboard-response","131","489150","0.0-11.0-1.48","bcrgq9h6dd8dpnq","1","6127bfccad93004b373846e9","27","07/1994","Single","English","A little bit of French","Male","White or Caucasian","No","Undergraduate degree","No, currently not in school","N/A","N/A","N/A","4","3","2","2","","0.83333334","stim/H200.jpg","76","76","0.900000004","4","1","4","","4","4","4","0","2","3","3","4","0","0","0","0","6","6","0","6","6","0","10","2","3","6","1","5","5","5","1","5","5","5","1","1","2","0","5","3","3","3","0","5","0","3","3","0","3","1","6","3","3","0","3","3","6","6","0","3","3","1","2","2","2","agree","217","","","","","","","","<div style=""font-size:60px;"">?</div>","76","49","1","0.8"
"image-keyboard-response","132","490171","0.0-11.0-0.49","bcrgq9h6dd8dpnq","1","6127bfccad93004b373846e9","27","07/1994","Single","English","A little bit of French","Male","White or Caucasian","No","Undergraduate degree","No, currently not in school","N/A","N/A","N/A","4","3","2","2","","0.83333334","stim/H200.jpg","76","76","0.900000004","4","1","4","","4","4","4","0","2","3","3","4","0","0","0","0","6","6","0","6","6","0","10","2","3","6","1","5","5","5","1","5","5","5","1","1","2","0","5","3","3","3","0","5","0","3","3","0","3","1","6","3","3","0","3","3","6","6","0","3","3","1","2","2","2","agree","null","","","","","","","","stim/H290.jpg","null","","",""
"html-keyboard-response","133","490189","0.0-11.0-1.49","bcrgq9h6dd8dpnq","1","6127bfccad93004b373846e9","27","07/1994","Single","English","A little bit of French","Male","White or Caucasian","No","Undergraduate degree","No, currently not in school","N/A","N/A","N/A","4","3","2","2","","0.83333334","stim/H200.jpg","76","76","0.900000004","4","1","4","","4","4","4","0","2","3","3","4","0","0","0","0","6","6","0","6","6","0","10","2","3","6","1","5","5","5","1","5","5","5","1","1","2","0","5","3","3","3","0","5","0","3","3","0","3","1","6","3","3","0","3","3","6","6","0","3","3","1","2","2","2","agree","17","","","","","","","","<div style=""font-size:60px;"">?</div>","76","50","1","0.8"
"html-keyboard-response","134","491415","0.0-12.0","bcrgq9h6dd8dpnq","1","6127bfccad93004b373846e9","27","07/1994","Single","English","A little bit of French","Male","White or Caucasian","No","Undergraduate degree","No, currently not in school","N/A","N/A","N/A","4","3","2","2","","0.83333334","stim/H200.jpg","76","76","0.900000004","4","1","4","","4","4","4","0","2","3","3","4","0","0","0","0","6","6","0","6","6","0","10","2","3","6","1","5","5","5","1","5","5","5","1","1","2","0","5","3","3","3","0","5","0","3","3","0","3","1","6","3","3","0","3","3","6","6","0","3","3","1","2","2","2","agree","717","","","","","","","","<p>Block 2</p><p>Press SPACE to continue.</p>","32","","",""
"image-keyboard-response","135","492941","0.0-13.0-0.0","bcrgq9h6dd8dpnq","1","6127bfccad93004b373846e9","27","07/1994","Single","English","A little bit of French","Male","White or Caucasian","No","Undergraduate degree","No, currently not in school","N/A","N/A","N/A","4","3","2","2","","0.83333334","stim/H200.jpg","76","76","0.900000004","4","1","4","","4","4","4","0","2","3","3","4","0","0","0","0","6","6","0","6","6","0","10","2","3","6","1","5","5","5","1","5","5","5","1","1","2","0","5","3","3","3","0","5","0","3","3","0","3","1","6","3","3","0","3","3","6","6","0","3","3","1","2","2","2","agree","null","","","","","","","","stim/H260.jpg","null","","",""
"html-keyboard-response","136","493154","0.0-13.0-1.0","bcrgq9h6dd8dpnq","1","6127bfccad93004b373846e9","27","07/1994","Single","English","A little bit of French","Male","White or Caucasian","No","Undergraduate degree","No, currently not in school","N/A","N/A","N/A","4","3","2","2","","0.83333334","stim/H200.jpg","76","76","0.900000004","4","1","4","","4","4","4","0","2","3","3","4","0","0","0","0","6","6","0","6","6","0","10","2","3","6","1","5","5","5","1","5","5","5","1","1","2","0","5","3","3","3","0","5","0","3","3","0","3","1","6","3","3","0","3","3","6","6","0","3","3","1","2","2","2","agree","213","","","","","","","","<div style=""font-size:60px;"">?</div>","76","1","2","0.8"
"image-keyboard-response","137","494179","0.0-13.0-0.1","bcrgq9h6dd8dpnq","1","6127bfccad93004b373846e9","27","07/1994","Single","English","A little bit of French","Male","White or Caucasian","No","Undergraduate degree","No, currently not in school","N/A","N/A","N/A","4","3","2","2","","0.83333334","stim/H200.jpg","76","76","0.900000004","4","1","4","","4","4","4","0","2","3","3","4","0","0","0","0","6","6","0","6","6","0","10","2","3","6","1","5","5","5","1","5","5","5","1","1","2","0","5","3","3","3","0","5","0","3","3","0","3","1","6","3","3","0","3","3","6","6","0","3","3","1","2","2","2","agree","null","","","","","","","","stim/H250.jpg","null","","",""
"html-keyboard-response","138","494229","0.0-13.0-1.1","bcrgq9h6dd8dpnq","1","6127bfccad93004b373846e9","27","07/1994","Single","English","A little bit of French","Male","White or Caucasian","No","Undergraduate degree","No, currently not in school","N/A","N/A","N/A","4","3","2","2","","0.83333334","stim/H200.jpg","76","76","0.900000004","4","1","4","","4","4","4","0","2","3","3","4","0","0","0","0","6","6","0","6","6","0","10","2","3","6","1","5","5","5","1","5","5","5","1","1","2","0","5","3","3","3","0","5","0","3","3","0","3","1","6","3","3","0","3","3","6","6","0","3","3","1","2","2","2","agree","50","","","","","","","","<div style=""font-size:60px;"">?</div>","76","2","2","0.8"
"image-keyboard-response","139","495248","0.0-13.0-0.2","bcrgq9h6dd8dpnq","1","6127bfccad93004b373846e9","27","07/1994","Single","English","A little bit of French","Male","White or Caucasian","No","Undergraduate degree","No, currently not in school","N/A","N/A","N/A","4","3","2","2","","0.83333334","stim/H200.jpg","76","76","0.900000004","4","1","4","","4","4","4","0","2","3","3","4","0","0","0","0","6","6","0","6","6","0","10","2","3","6","1","5","5","5","1","5","5","5","1","1","2","0","5","3","3","3","0","5","0","3","3","0","3","1","6","3","3","0","3","3","6","6","0","3","3","1","2","2","2","agree","null","","","","","","","","stim/T270.jpg","null","","",""
"html-keyboard-response","140","495329","0.0-13.0-1.2","bcrgq9h6dd8dpnq","1","6127bfccad93004b373846e9","27","07/1994","Single","English","A little bit of French","Male","White or Caucasian","No","Undergraduate degree","No, currently not in school","N/A","N/A","N/A","4","3","2","2","","0.83333334","stim/H200.jpg","76","76","0.900000004","4","1","4","","4","4","4","0","2","3","3","4","0","0","0","0","6","6","0","6","6","0","10","2","3","6","1","5","5","5","1","5","5","5","1","1","2","0","5","3","3","3","0","5","0","3","3","0","3","1","6","3","3","0","3","3","6","6","0","3","3","1","2","2","2","agree","81","","","","","","","","<div style=""font-size:60px;"">?</div>","65","3","2","0.8"
"image-keyboard-response","141","496348","0.0-13.0-0.3","bcrgq9h6dd8dpnq","1","6127bfccad93004b373846e9","27","07/1994","Single","English","A little bit of French","Male","White or Caucasian","No","Undergraduate degree","No, currently not in school","N/A","N/A","N/A","4","3","2","2","","0.83333334","stim/H200.jpg","76","76","0.900000004","4","1","4","","4","4","4","0","2","3","3","4","0","0","0","0","6","6","0","6","6","0","10","2","3","6","1","5","5","5","1","5","5","5","1","1","2","0","5","3","3","3","0","5","0","3","3","0","3","1","6","3","3","0","3","3","6","6","0","3","3","1","2","2","2","agree","null","","","","","","","","stim/H180.jpg","null","","",""
"html-keyboard-response","142","496521","0.0-13.0-1.3","bcrgq9h6dd8dpnq","1","6127bfccad93004b373846e9","27","07/1994","Single","English","A little bit of French","Male","White or Caucasian","No","Undergraduate degree","No, currently not in school","N/A","N/A","N/A","4","3","2","2","","0.83333334","stim/H200.jpg","76","76","0.900000004","4","1","4","","4","4","4","0","2","3","3","4","0","0","0","0","6","6","0","6","6","0","10","2","3","6","1","5","5","5","1","5","5","5","1","1","2","0","5","3","3","3","0","5","0","3","3","0","3","1","6","3","3","0","3","3","6","6","0","3","3","1","2","2","2","agree","171","","","","","","","","<div style=""font-size:60px;"">?</div>","76","4","2","0.8"
