"trial_type","trial_index","time_elapsed","internal_node_id","subject","condition","ID","age","dob","marital","natlang","olang","gender","ethnicity","mental_check","educ_l","educ_c","mental","mentdrug","mentpos","sesparent","sesstudent","sesladder","educ_hs","educ_ce","s1self","chosenbody","s1selfjudge","s2selfjudge","s2self","sspc_01","sspc_02","pas_01","pas_02","pas_03","pas_04","pas_05","pas_06","pas_07","pas_08","pas_09","pas_10","pas_11","pas_12","pas_13","pas_14","contact_01","contact_02","contact_03","contact_04","contact_05","contact_06","contact_07","contact_08","contact_09","idnd_01","idnd_02","idnd_03","idnd_04","idnd_05","idnd_06","idnd_07","idnd_08","catch_01","adig_01","adig_02","adig_03","plcs_01","plcs_02","plcs_03","plcs_04","plcs_05","plcs_06","plcs_07","plcs_08","plcs_09","plcs_10","plcs_11","plcs_12","catch_02","wwwp_01","wwwp_02","wwwp_03","wwwp_04","wwwp_05","wwwp_06","wwwp_07","wwwp_08","wwwp_09","lsns_fam_1","lsns_fam_2","lsns_fam_3","lsns_fri_1","lsns_fri_2","lsns_fri_3","debrief","rt","url","success","view_history","responses","question_order","final_value","start_value","stimulus","key_press","trial","block","freq"
"pavlovia","0","3","0.0-0.0","nx58ov4n9htpu4z","1","6110e27590848aeaee9fc49a","19","10/2001","In a relationship","English","N/A","Female","Asian","No","High School","Yes, Undergraduate studies","N/A","N/A","N/A","5","4","4","1","0","0.5","stim/N000.jpg","65","76","0.433333316","3","0","3","","3","2","3","3","3","2","3","4","1","3","1","1","5","6","1","5","5","1","7","2","4","4","1","4","5","5","1","5","6","5","1","1","3","1","3","3","2","2","4","3","3","3","4","4","4","1","4","2","3","2","4","1","4","4","2","4","3","4","4","3","2","agree","","","","","","","","","","","","",""
"external-html","1","21335","0.0-1.0","nx58ov4n9htpu4z","1","6110e27590848aeaee9fc49a","19","10/2001","In a relationship","English","N/A","Female","Asian","No","High School","Yes, Undergraduate studies","N/A","N/A","N/A","5","4","4","1","0","0.5","stim/N000.jpg","65","76","0.433333316","3","0","3","","3","2","3","3","3","2","3","4","1","3","1","1","5","6","1","5","5","1","7","2","4","4","1","4","5","5","1","5","6","5","1","1","3","1","3","3","2","2","4","3","3","3","4","4","4","1","4","2","3","2","4","1","4","4","2","4","3","4","4","3","2","agree","21122.5","sub/html/consent.html","","","","","","","","","","",""
"fullscreen","2","28862","0.0-2.0","nx58ov4n9htpu4z","1","6110e27590848aeaee9fc49a","19","10/2001","In a relationship","English","N/A","Female","Asian","No","High School","Yes, Undergraduate studies","N/A","N/A","N/A","5","4","4","1","0","0.5","stim/N000.jpg","65","76","0.433333316","3","0","3","","3","2","3","3","3","2","3","4","1","3","1","1","5","6","1","5","5","1","7","2","4","4","1","4","5","5","1","5","6","5","1","1","3","1","3","3","2","2","4","3","3","3","4","4","4","1","4","2","3","2","4","1","4","4","2","4","3","4","4","3","2","agree","","","true","","","","","","","","","",""
"instructions","3","36996","0.0-3.0","nx58ov4n9htpu4z","1","6110e27590848aeaee9fc49a","19","10/2001","In a relationship","English","N/A","Female","Asian","No","High School","Yes, Undergraduate studies","N/A","N/A","N/A","5","4","4","1","0","0.5","stim/N000.jpg","65","76","0.433333316","3","0","3","","3","2","3","3","3","2","3","4","1","3","1","1","5","6","1","5","5","1","7","2","4","4","1","4","5","5","1","5","6","5","1","1","3","1","3","3","2","2","4","3","3","3","4","4","4","1","4","2","3","2","4","1","4","4","2","4","3","4","4","3","2","agree","8132.199999999255","","","[{""page_index"":0,""viewing_time"":1603.0999999977648},{""page_index"":1,""viewing_time"":6528.900000002235}]","","","","","","","","",""
"survey-text","4","101924","0.0-4.0-0.0","nx58ov4n9htpu4z","1","6110e27590848aeaee9fc49a","19","10/2001","In a relationship","English","N/A","Female","Asian","No","High School","Yes, Undergraduate studies","N/A","N/A","N/A","5","4","4","1","0","0.5","stim/N000.jpg","65","76","0.433333316","3","0","3","","3","2","3","3","3","2","3","4","1","3","1","1","5","6","1","5","5","1","7","2","4","4","1","4","5","5","1","5","6","5","1","1","3","1","3","3","2","2","4","3","3","3","4","4","4","1","4","2","3","2","4","1","4","4","2","4","3","4","4","3","2","agree","64924.599999997765","","","","{""ID"":""6110e27590848aeaee9fc49a"",""age"":""19"",""dob"":""10/2001"",""marital"":""In a relationship"",""natlang"":""English"",""olang"":""N/A""}","","","","","","","",""
"survey-multi-choice","5","132987","0.0-4.0-1.0","nx58ov4n9htpu4z","1","6110e27590848aeaee9fc49a","19","10/2001","In a relationship","English","N/A","Female","Asian","No","High School","Yes, Undergraduate studies","N/A","N/A","N/A","5","4","4","1","0","0.5","stim/N000.jpg","65","76","0.433333316","3","0","3","","3","2","3","3","3","2","3","4","1","3","1","1","5","6","1","5","5","1","7","2","4","4","1","4","5","5","1","5","6","5","1","1","3","1","3","3","2","2","4","3","3","3","4","4","4","1","4","2","3","2","4","1","4","4","2","4","3","4","4","3","2","agree","31060.599999997765","","","","{""gender"":""Female"",""ethnicity"":""Asian"",""mental_check"":""No"",""educ_l"":""High School"",""educ_c"":""Yes, Undergraduate studies""}","[0,1,2,3,4]","","","","","","",""
"survey-text","6","179478","0.0-4.0-2.0","nx58ov4n9htpu4z","1","6110e27590848aeaee9fc49a","19","10/2001","In a relationship","English","N/A","Female","Asian","No","High School","Yes, Undergraduate studies","N/A","N/A","N/A","5","4","4","1","0","0.5","stim/N000.jpg","65","76","0.433333316","3","0","3","","3","2","3","3","3","2","3","4","1","3","1","1","5","6","1","5","5","1","7","2","4","4","1","4","5","5","1","5","6","5","1","1","3","1","3","3","2","2","4","3","3","3","4","4","4","1","4","2","3","2","4","1","4","4","2","4","3","4","4","3","2","agree","46488.60000000149","","","","{""mental"":""N/A"",""mentdrug"":""N/A"",""mentpos"":""N/A""}","","","","","","","",""
"survey-likert","7","243821","0.0-4.0-3.0","nx58ov4n9htpu4z","1","6110e27590848aeaee9fc49a","19","10/2001","In a relationship","English","N/A","Female","Asian","No","High School","Yes, Undergraduate studies","N/A","N/A","N/A","5","4","4","1","0","0.5","stim/N000.jpg","65","76","0.433333316","3","0","3","","3","2","3","3","3","2","3","4","1","3","1","1","5","6","1","5","5","1","7","2","4","4","1","4","5","5","1","5","6","5","1","1","3","1","3","3","2","2","4","3","3","3","4","4","4","1","4","2","3","2","4","1","4","4","2","4","3","4","4","3","2","agree","64342.099999997765","","","","{""sesparent"":5,""sesstudent"":4,""sesladder"":4}","[0,1,2]","","","","","","",""
"survey-likert","8","255614","0.0-4.0-4.0","nx58ov4n9htpu4z","1","6110e27590848aeaee9fc49a","19","10/2001","In a relationship","English","N/A","Female","Asian","No","High School","Yes, Undergraduate studies","N/A","N/A","N/A","5","4","4","1","0","0.5","stim/N000.jpg","65","76","0.433333316","3","0","3","","3","2","3","3","3","2","3","4","1","3","1","1","5","6","1","5","5","1","7","2","4","4","1","4","5","5","1","5","6","5","1","1","3","1","3","3","2","2","4","3","3","3","4","4","4","1","4","2","3","2","4","1","4","4","2","4","3","4","4","3","2","agree","11791.5","","","","{""educ_hs"":1,""educ_ce"":13}","[0,1]","","","","","","",""
"reconstruction","9","261709","0.0-5.0","nx58ov4n9htpu4z","1","6110e27590848aeaee9fc49a","19","10/2001","In a relationship","English","N/A","Female","Asian","No","High School","Yes, Undergraduate studies","N/A","N/A","N/A","5","4","4","1","0","0.5","stim/N000.jpg","65","76","0.433333316","3","0","3","","3","2","3","3","3","2","3","4","1","3","1","1","5","6","1","5","5","1","7","2","4","4","1","4","5","5","1","5","6","5","1","1","3","1","3","3","2","2","4","3","3","3","4","4","4","1","4","2","3","2","4","1","4","4","2","4","3","4","4","3","2","agree","6093.5","","","","","","0.5","0.5","","","","",""
"image-keyboard-response","10","278254","0.0-6.0","nx58ov4n9htpu4z","1","6110e27590848aeaee9fc49a","19","10/2001","In a relationship","English","N/A","Female","Asian","No","High School","Yes, Undergraduate studies","N/A","N/A","N/A","5","4","4","1","0","0.5","stim/N000.jpg","65","76","0.433333316","3","0","3","","3","2","3","3","3","2","3","4","1","3","1","1","5","6","1","5","5","1","7","2","4","4","1","4","5","5","1","5","6","5","1","1","3","1","3","3","2","2","4","3","3","3","4","4","4","1","4","2","3","2","4","1","4","4","2","4","3","4","4","3","2","agree","16541","","","","","","","","stim/N000.jpg","65","","",""
"instructions","11","304667","0.0-7.0","nx58ov4n9htpu4z","1","6110e27590848aeaee9fc49a","19","10/2001","In a relationship","English","N/A","Female","Asian","No","High School","Yes, Undergraduate studies","N/A","N/A","N/A","5","4","4","1","0","0.5","stim/N000.jpg","65","76","0.433333316","3","0","3","","3","2","3","3","3","2","3","4","1","3","1","1","5","6","1","5","5","1","7","2","4","4","1","4","5","5","1","5","6","5","1","1","3","1","3","3","2","2","4","3","3","3","4","4","4","1","4","2","3","2","4","1","4","4","2","4","3","4","4","3","2","agree","26412","","","[{""page_index"":0,""viewing_time"":2144.39999999851},{""page_index"":1,""viewing_time"":5733.199999999255},{""page_index"":2,""viewing_time"":3919.199999999255},{""page_index"":3,""viewing_time"":4125.60000000149},{""page_index"":4,""viewing_time"":2249},{""page_index"":5,""viewing_time"":7057.300000000745},{""page_index"":6,""viewing_time"":1183}]","","","","","","","","",""
"image-keyboard-response","12","305176","0.0-8.0-0.0","nx58ov4n9htpu4z","1","6110e27590848aeaee9fc49a","19","10/2001","In a relationship","English","N/A","Female","Asian","No","High School","Yes, Undergraduate studies","N/A","N/A","N/A","5","4","4","1","0","0.5","stim/N000.jpg","65","76","0.433333316","3","0","3","","3","2","3","3","3","2","3","4","1","3","1","1","5","6","1","5","5","1","7","2","4","4","1","4","5","5","1","5","6","5","1","1","3","1","3","3","2","2","4","3","3","3","4","4","4","1","4","2","3","2","4","1","4","4","2","4","3","4","4","3","2","agree","null","","","","","","","","stim/T110.jpg","null","","",""
"html-keyboard-response","13","309283","0.0-8.0-1.0","nx58ov4n9htpu4z","1","6110e27590848aeaee9fc49a","19","10/2001","In a relationship","English","N/A","Female","Asian","No","High School","Yes, Undergraduate studies","N/A","N/A","N/A","5","4","4","1","0","0.5","stim/N000.jpg","65","76","0.433333316","3","0","3","","3","2","3","3","3","2","3","4","1","3","1","1","5","6","1","5","5","1","7","2","4","4","1","4","5","5","1","5","6","5","1","1","3","1","3","3","2","2","4","3","3","3","4","4","4","1","4","2","3","2","4","1","4","4","2","4","3","4","4","3","2","agree","4107.39999999851","","","","","","","","<div style=""font-size:60px;"">?</div>","65","1","Practice","0.5"
"image-keyboard-response","14","310302","0.0-8.0-0.1","nx58ov4n9htpu4z","1","6110e27590848aeaee9fc49a","19","10/2001","In a relationship","English","N/A","Female","Asian","No","High School","Yes, Undergraduate studies","N/A","N/A","N/A","5","4","4","1","0","0.5","stim/N000.jpg","65","76","0.433333316","3","0","3","","3","2","3","3","3","2","3","4","1","3","1","1","5","6","1","5","5","1","7","2","4","4","1","4","5","5","1","5","6","5","1","1","3","1","3","3","2","2","4","3","3","3","4","4","4","1","4","2","3","2","4","1","4","4","2","4","3","4","4","3","2","agree","null","","","","","","","","stim/T190.jpg","null","","",""
"html-keyboard-response","15","311864","0.0-8.0-1.1","nx58ov4n9htpu4z","1","6110e27590848aeaee9fc49a","19","10/2001","In a relationship","English","N/A","Female","Asian","No","High School","Yes, Undergraduate studies","N/A","N/A","N/A","5","4","4","1","0","0.5","stim/N000.jpg","65","76","0.433333316","3","0","3","","3","2","3","3","3","2","3","4","1","3","1","1","5","6","1","5","5","1","7","2","4","4","1","4","5","5","1","5","6","5","1","1","3","1","3","3","2","2","4","3","3","3","4","4","4","1","4","2","3","2","4","1","4","4","2","4","3","4","4","3","2","agree","1562.1000000014901","","","","","","","","<div style=""font-size:60px;"">?</div>","65","2","Practice","0.5"
"image-keyboard-response","16","312887","0.0-8.0-0.2","nx58ov4n9htpu4z","1","6110e27590848aeaee9fc49a","19","10/2001","In a relationship","English","N/A","Female","Asian","No","High School","Yes, Undergraduate studies","N/A","N/A","N/A","5","4","4","1","0","0.5","stim/N000.jpg","65","76","0.433333316","3","0","3","","3","2","3","3","3","2","3","4","1","3","1","1","5","6","1","5","5","1","7","2","4","4","1","4","5","5","1","5","6","5","1","1","3","1","3","3","2","2","4","3","3","3","4","4","4","1","4","2","3","2","4","1","4","4","2","4","3","4","4","3","2","agree","null","","","","","","","","stim/H140.jpg","null","","",""
"html-keyboard-response","17","316121","0.0-8.0-1.2","nx58ov4n9htpu4z","1","6110e27590848aeaee9fc49a","19","10/2001","In a relationship","English","N/A","Female","Asian","No","High School","Yes, Undergraduate studies","N/A","N/A","N/A","5","4","4","1","0","0.5","stim/N000.jpg","65","76","0.433333316","3","0","3","","3","2","3","3","3","2","3","4","1","3","1","1","5","6","1","5","5","1","7","2","4","4","1","4","5","5","1","5","6","5","1","1","3","1","3","3","2","2","4","3","3","3","4","4","4","1","4","2","3","2","4","1","4","4","2","4","3","4","4","3","2","agree","3233.099999997765","","","","","","","","<div style=""font-size:60px;"">?</div>","76","3","Practice","0.5"
"image-keyboard-response","18","317135","0.0-8.0-0.3","nx58ov4n9htpu4z","1","6110e27590848aeaee9fc49a","19","10/2001","In a relationship","English","N/A","Female","Asian","No","High School","Yes, Undergraduate studies","N/A","N/A","N/A","5","4","4","1","0","0.5","stim/N000.jpg","65","76","0.433333316","3","0","3","","3","2","3","3","3","2","3","4","1","3","1","1","5","6","1","5","5","1","7","2","4","4","1","4","5","5","1","5","6","5","1","1","3","1","3","3","2","2","4","3","3","3","4","4","4","1","4","2","3","2","4","1","4","4","2","4","3","4","4","3","2","agree","null","","","","","","","","stim/H090.jpg","null","","",""
"html-keyboard-response","19","318865","0.0-8.0-1.3","nx58ov4n9htpu4z","1","6110e27590848aeaee9fc49a","19","10/2001","In a relationship","English","N/A","Female","Asian","No","High School","Yes, Undergraduate studies","N/A","N/A","N/A","5","4","4","1","0","0.5","stim/N000.jpg","65","76","0.433333316","3","0","3","","3","2","3","3","3","2","3","4","1","3","1","1","5","6","1","5","5","1","7","2","4","4","1","4","5","5","1","5","6","5","1","1","3","1","3","3","2","2","4","3","3","3","4","4","4","1","4","2","3","2","4","1","4","4","2","4","3","4","4","3","2","agree","1729.5999999977648","","","","","","","","<div style=""font-size:60px;"">?</div>","76","4","Practice","0.5"
"image-keyboard-response","20","319890","0.0-8.0-0.4","nx58ov4n9htpu4z","1","6110e27590848aeaee9fc49a","19","10/2001","In a relationship","English","N/A","Female","Asian","No","High School","Yes, Undergraduate studies","N/A","N/A","N/A","5","4","4","1","0","0.5","stim/N000.jpg","65","76","0.433333316","3","0","3","","3","2","3","3","3","2","3","4","1","3","1","1","5","6","1","5","5","1","7","2","4","4","1","4","5","5","1","5","6","5","1","1","3","1","3","3","2","2","4","3","3","3","4","4","4","1","4","2","3","2","4","1","4","4","2","4","3","4","4","3","2","agree","null","","","","","","","","stim/T270.jpg","null","","",""
"html-keyboard-response","21","320650","0.0-8.0-1.4","nx58ov4n9htpu4z","1","6110e27590848aeaee9fc49a","19","10/2001","In a relationship","English","N/A","Female","Asian","No","High School","Yes, Undergraduate studies","N/A","N/A","N/A","5","4","4","1","0","0.5","stim/N000.jpg","65","76","0.433333316","3","0","3","","3","2","3","3","3","2","3","4","1","3","1","1","5","6","1","5","5","1","7","2","4","4","1","4","5","5","1","5","6","5","1","1","3","1","3","3","2","2","4","3","3","3","4","4","4","1","4","2","3","2","4","1","4","4","2","4","3","4","4","3","2","agree","759","","","","","","","","<div style=""font-size:60px;"">?</div>","65","5","Practice","0.5"
"image-keyboard-response","22","321664","0.0-8.0-0.5","nx58ov4n9htpu4z","1","6110e27590848aeaee9fc49a","19","10/2001","In a relationship","English","N/A","Female","Asian","No","High School","Yes, Undergraduate studies","N/A","N/A","N/A","5","4","4","1","0","0.5","stim/N000.jpg","65","76","0.433333316","3","0","3","","3","2","3","3","3","2","3","4","1","3","1","1","5","6","1","5","5","1","7","2","4","4","1","4","5","5","1","5","6","5","1","1","3","1","3","3","2","2","4","3","3","3","4","4","4","1","4","2","3","2","4","1","4","4","2","4","3","4","4","3","2","agree","null","","","","","","","","stim/T210.jpg","null","","",""
"html-keyboard-response","23","325475","0.0-8.0-1.5","nx58ov4n9htpu4z","1","6110e27590848aeaee9fc49a","19","10/2001","In a relationship","English","N/A","Female","Asian","No","High School","Yes, Undergraduate studies","N/A","N/A","N/A","5","4","4","1","0","0.5","stim/N000.jpg","65","76","0.433333316","3","0","3","","3","2","3","3","3","2","3","4","1","3","1","1","5","6","1","5","5","1","7","2","4","4","1","4","5","5","1","5","6","5","1","1","3","1","3","3","2","2","4","3","3","3","4","4","4","1","4","2","3","2","4","1","4","4","2","4","3","4","4","3","2","agree","3811.10000000149","","","","","","","","<div style=""font-size:60px;"">?</div>","76","6","Practice","0.5"
"image-keyboard-response","24","326492","0.0-8.0-0.6","nx58ov4n9htpu4z","1","6110e27590848aeaee9fc49a","19","10/2001","In a relationship","English","N/A","Female","Asian","No","High School","Yes, Undergraduate studies","N/A","N/A","N/A","5","4","4","1","0","0.5","stim/N000.jpg","65","76","0.433333316","3","0","3","","3","2","3","3","3","2","3","4","1","3","1","1","5","6","1","5","5","1","7","2","4","4","1","4","5","5","1","5","6","5","1","1","3","1","3","3","2","2","4","3","3","3","4","4","4","1","4","2","3","2","4","1","4","4","2","4","3","4","4","3","2","agree","null","","","","","","","","stim/H220.jpg","null","","",""
"html-keyboard-response","25","326719","0.0-8.0-1.6","nx58ov4n9htpu4z","1","6110e27590848aeaee9fc49a","19","10/2001","In a relationship","English","N/A","Female","Asian","No","High School","Yes, Undergraduate studies","N/A","N/A","N/A","5","4","4","1","0","0.5","stim/N000.jpg","65","76","0.433333316","3","0","3","","3","2","3","3","3","2","3","4","1","3","1","1","5","6","1","5","5","1","7","2","4","4","1","4","5","5","1","5","6","5","1","1","3","1","3","3","2","2","4","3","3","3","4","4","4","1","4","2","3","2","4","1","4","4","2","4","3","4","4","3","2","agree","227","","","","","","","","<div style=""font-size:60px;"">?</div>","76","7","Practice","0.5"
"image-keyboard-response","26","327738","0.0-8.0-0.7","nx58ov4n9htpu4z","1","6110e27590848aeaee9fc49a","19","10/2001","In a relationship","English","N/A","Female","Asian","No","High School","Yes, Undergraduate studies","N/A","N/A","N/A","5","4","4","1","0","0.5","stim/N000.jpg","65","76","0.433333316","3","0","3","","3","2","3","3","3","2","3","4","1","3","1","1","5","6","1","5","5","1","7","2","4","4","1","4","5","5","1","5","6","5","1","1","3","1","3","3","2","2","4","3","3","3","4","4","4","1","4","2","3","2","4","1","4","4","2","4","3","4","4","3","2","agree","null","","","","","","","","stim/H170.jpg","null","","",""
"html-keyboard-response","27","328056","0.0-8.0-1.7","nx58ov4n9htpu4z","1","6110e27590848aeaee9fc49a","19","10/2001","In a relationship","English","N/A","Female","Asian","No","High School","Yes, Undergraduate studies","N/A","N/A","N/A","5","4","4","1","0","0.5","stim/N000.jpg","65","76","0.433333316","3","0","3","","3","2","3","3","3","2","3","4","1","3","1","1","5","6","1","5","5","1","7","2","4","4","1","4","5","5","1","5","6","5","1","1","3","1","3","3","2","2","4","3","3","3","4","4","4","1","4","2","3","2","4","1","4","4","2","4","3","4","4","3","2","agree","317.70000000298023","","","","","","","","<div style=""font-size:60px;"">?</div>","76","8","Practice","0.5"
"image-keyboard-response","28","329080","0.0-8.0-0.8","nx58ov4n9htpu4z","1","6110e27590848aeaee9fc49a","19","10/2001","In a relationship","English","N/A","Female","Asian","No","High School","Yes, Undergraduate studies","N/A","N/A","N/A","5","4","4","1","0","0.5","stim/N000.jpg","65","76","0.433333316","3","0","3","","3","2","3","3","3","2","3","4","1","3","1","1","5","6","1","5","5","1","7","2","4","4","1","4","5","5","1","5","6","5","1","1","3","1","3","3","2","2","4","3","3","3","4","4","4","1","4","2","3","2","4","1","4","4","2","4","3","4","4","3","2","agree","null","","","","","","","","stim/T070.jpg","null","","",""
"html-keyboard-response","29","330557","0.0-8.0-1.8","nx58ov4n9htpu4z","1","6110e27590848aeaee9fc49a","19","10/2001","In a relationship","English","N/A","Female","Asian","No","High School","Yes, Undergraduate studies","N/A","N/A","N/A","5","4","4","1","0","0.5","stim/N000.jpg","65","76","0.433333316","3","0","3","","3","2","3","3","3","2","3","4","1","3","1","1","5","6","1","5","5","1","7","2","4","4","1","4","5","5","1","5","6","5","1","1","3","1","3","3","2","2","4","3","3","3","4","4","4","1","4","2","3","2","4","1","4","4","2","4","3","4","4","3","2","agree","1477.1000000014901","","","","","","","","<div style=""font-size:60px;"">?</div>","65","9","Practice","0.5"
"image-keyboard-response","30","331572","0.0-8.0-0.9","nx58ov4n9htpu4z","1","6110e27590848aeaee9fc49a","19","10/2001","In a relationship","English","N/A","Female","Asian","No","High School","Yes, Undergraduate studies","N/A","N/A","N/A","5","4","4","1","0","0.5","stim/N000.jpg","65","76","0.433333316","3","0","3","","3","2","3","3","3","2","3","4","1","3","1","1","5","6","1","5","5","1","7","2","4","4","1","4","5","5","1","5","6","5","1","1","3","1","3","3","2","2","4","3","3","3","4","4","4","1","4","2","3","2","4","1","4","4","2","4","3","4","4","3","2","agree","null","","","","","","","","stim/H300.jpg","null","","",""
"html-keyboard-response","31","331841","0.0-8.0-1.9","nx58ov4n9htpu4z","1","6110e27590848aeaee9fc49a","19","10/2001","In a relationship","English","N/A","Female","Asian","No","High School","Yes, Undergraduate studies","N/A","N/A","N/A","5","4","4","1","0","0.5","stim/N000.jpg","65","76","0.433333316","3","0","3","","3","2","3","3","3","2","3","4","1","3","1","1","5","6","1","5","5","1","7","2","4","4","1","4","5","5","1","5","6","5","1","1","3","1","3","3","2","2","4","3","3","3","4","4","4","1","4","2","3","2","4","1","4","4","2","4","3","4","4","3","2","agree","268.3999999985099","","","","","","","","<div style=""font-size:60px;"">?</div>","76","10","Practice","0.5"
"html-keyboard-response","32","345917","0.0-9.0","nx58ov4n9htpu4z","1","6110e27590848aeaee9fc49a","19","10/2001","In a relationship","English","N/A","Female","Asian","No","High School","Yes, Undergraduate studies","N/A","N/A","N/A","5","4","4","1","0","0.5","stim/N000.jpg","65","76","0.433333316","3","0","3","","3","2","3","3","3","2","3","4","1","3","1","1","5","6","1","5","5","1","7","2","4","4","1","4","5","5","1","5","6","5","1","1","3","1","3","3","2","2","4","3","3","3","4","4","4","1","4","2","3","2","4","1","4","4","2","4","3","4","4","3","2","agree","13560.60000000149","","","","","","","","<p>You have now completed the practice series.</p><p>If you have any questions, please reload this page and read the instructions again.</p><p>Otherwise, you're ready to begin the study!</p><p><strong>REMEMBER</strong>: Press <b>L </b>when you think the face is of Western origin, and <b>A </b>if not. </p><p>Press SPACE when you're ready to start!</p>","32","","",""
"html-keyboard-response","33","347211","0.0-10.0","nx58ov4n9htpu4z","1","6110e27590848aeaee9fc49a","19","10/2001","In a relationship","English","N/A","Female","Asian","No","High School","Yes, Undergraduate studies","N/A","N/A","N/A","5","4","4","1","0","0.5","stim/N000.jpg","65","76","0.433333316","3","0","3","","3","2","3","3","3","2","3","4","1","3","1","1","5","6","1","5","5","1","7","2","4","4","1","4","5","5","1","5","6","5","1","1","3","1","3","3","2","2","4","3","3","3","4","4","4","1","4","2","3","2","4","1","4","4","2","4","3","4","4","3","2","agree","791.4000000022352","","","","","","","","<p>Block 1</p><p>Press SPACE to continue.</p>","32","","",""
"image-keyboard-response","34","348712","0.0-11.0-0.0","nx58ov4n9htpu4z","1","6110e27590848aeaee9fc49a","19","10/2001","In a relationship","English","N/A","Female","Asian","No","High School","Yes, Undergraduate studies","N/A","N/A","N/A","5","4","4","1","0","0.5","stim/N000.jpg","65","76","0.433333316","3","0","3","","3","2","3","3","3","2","3","4","1","3","1","1","5","6","1","5","5","1","7","2","4","4","1","4","5","5","1","5","6","5","1","1","3","1","3","3","2","2","4","3","3","3","4","4","4","1","4","2","3","2","4","1","4","4","2","4","3","4","4","3","2","agree","null","","","","","","","","stim/T040.jpg","null","","",""
"html-keyboard-response","35","351128","0.0-11.0-1.0","nx58ov4n9htpu4z","1","6110e27590848aeaee9fc49a","19","10/2001","In a relationship","English","N/A","Female","Asian","No","High School","Yes, Undergraduate studies","N/A","N/A","N/A","5","4","4","1","0","0.5","stim/N000.jpg","65","76","0.433333316","3","0","3","","3","2","3","3","3","2","3","4","1","3","1","1","5","6","1","5","5","1","7","2","4","4","1","4","5","5","1","5","6","5","1","1","3","1","3","3","2","2","4","3","3","3","4","4","4","1","4","2","3","2","4","1","4","4","2","4","3","4","4","3","2","agree","2415.300000000745","","","","","","","","<div style=""font-size:60px;"">?</div>","65","1","1","0.8"
"image-keyboard-response","36","352154","0.0-11.0-0.1","nx58ov4n9htpu4z","1","6110e27590848aeaee9fc49a","19","10/2001","In a relationship","English","N/A","Female","Asian","No","High School","Yes, Undergraduate studies","N/A","N/A","N/A","5","4","4","1","0","0.5","stim/N000.jpg","65","76","0.433333316","3","0","3","","3","2","3","3","3","2","3","4","1","3","1","1","5","6","1","5","5","1","7","2","4","4","1","4","5","5","1","5","6","5","1","1","3","1","3","3","2","2","4","3","3","3","4","4","4","1","4","2","3","2","4","1","4","4","2","4","3","4","4","3","2","agree","null","","","","","","","","stim/H200.jpg","null","","",""
"html-keyboard-response","37","352713","0.0-11.0-1.1","nx58ov4n9htpu4z","1","6110e27590848aeaee9fc49a","19","10/2001","In a relationship","English","N/A","Female","Asian","No","High School","Yes, Undergraduate studies","N/A","N/A","N/A","5","4","4","1","0","0.5","stim/N000.jpg","65","76","0.433333316","3","0","3","","3","2","3","3","3","2","3","4","1","3","1","1","5","6","1","5","5","1","7","2","4","4","1","4","5","5","1","5","6","5","1","1","3","1","3","3","2","2","4","3","3","3","4","4","4","1","4","2","3","2","4","1","4","4","2","4","3","4","4","3","2","agree","558.7000000029802","","","","","","","","<div style=""font-size:60px;"">?</div>","76","2","1","0.8"
"image-keyboard-response","38","353726","0.0-11.0-0.2","nx58ov4n9htpu4z","1","6110e27590848aeaee9fc49a","19","10/2001","In a relationship","English","N/A","Female","Asian","No","High School","Yes, Undergraduate studies","N/A","N/A","N/A","5","4","4","1","0","0.5","stim/N000.jpg","65","76","0.433333316","3","0","3","","3","2","3","3","3","2","3","4","1","3","1","1","5","6","1","5","5","1","7","2","4","4","1","4","5","5","1","5","6","5","1","1","3","1","3","3","2","2","4","3","3","3","4","4","4","1","4","2","3","2","4","1","4","4","2","4","3","4","4","3","2","agree","null","","","","","","","","stim/H100.jpg","null","","",""
"html-keyboard-response","39","354654","0.0-11.0-1.2","nx58ov4n9htpu4z","1","6110e27590848aeaee9fc49a","19","10/2001","In a relationship","English","N/A","Female","Asian","No","High School","Yes, Undergraduate studies","N/A","N/A","N/A","5","4","4","1","0","0.5","stim/N000.jpg","65","76","0.433333316","3","0","3","","3","2","3","3","3","2","3","4","1","3","1","1","5","6","1","5","5","1","7","2","4","4","1","4","5","5","1","5","6","5","1","1","3","1","3","3","2","2","4","3","3","3","4","4","4","1","4","2","3","2","4","1","4","4","2","4","3","4","4","3","2","agree","927.2000000029802","","","","","","","","<div style=""font-size:60px;"">?</div>","76","3","1","0.8"
"image-keyboard-response","40","355677","0.0-11.0-0.3","nx58ov4n9htpu4z","1","6110e27590848aeaee9fc49a","19","10/2001","In a relationship","English","N/A","Female","Asian","No","High School","Yes, Undergraduate studies","N/A","N/A","N/A","5","4","4","1","0","0.5","stim/N000.jpg","65","76","0.433333316","3","0","3","","3","2","3","3","3","2","3","4","1","3","1","1","5","6","1","5","5","1","7","2","4","4","1","4","5","5","1","5","6","5","1","1","3","1","3","3","2","2","4","3","3","3","4","4","4","1","4","2","3","2","4","1","4","4","2","4","3","4","4","3","2","agree","null","","","","","","","","stim/H050.jpg","null","","",""
"html-keyboard-response","41","356443","0.0-11.0-1.3","nx58ov4n9htpu4z","1","6110e27590848aeaee9fc49a","19","10/2001","In a relationship","English","N/A","Female","Asian","No","High School","Yes, Undergraduate studies","N/A","N/A","N/A","5","4","4","1","0","0.5","stim/N000.jpg","65","76","0.433333316","3","0","3","","3","2","3","3","3","2","3","4","1","3","1","1","5","6","1","5","5","1","7","2","4","4","1","4","5","5","1","5","6","5","1","1","3","1","3","3","2","2","4","3","3","3","4","4","4","1","4","2","3","2","4","1","4","4","2","4","3","4","4","3","2","agree","765.7000000029802","","","","","","","","<div style=""font-size:60px;"">?</div>","65","4","1","0.8"
"image-keyboard-response","42","357463","0.0-11.0-0.4","nx58ov4n9htpu4z","1","6110e27590848aeaee9fc49a","19","10/2001","In a relationship","English","N/A","Female","Asian","No","High School","Yes, Undergraduate studies","N/A","N/A","N/A","5","4","4","1","0","0.5","stim/N000.jpg","65","76","0.433333316","3","0","3","","3","2","3","3","3","2","3","4","1","3","1","1","5","6","1","5","5","1","7","2","4","4","1","4","5","5","1","5","6","5","1","1","3","1","3","3","2","2","4","3","3","3","4","4","4","1","4","2","3","2","4","1","4","4","2","4","3","4","4","3","2","agree","null","","","","","","","","stim/T110.jpg","null","","",""
"html-keyboard-response","43","357880","0.0-11.0-1.4","nx58ov4n9htpu4z","1","6110e27590848aeaee9fc49a","19","10/2001","In a relationship","English","N/A","Female","Asian","No","High School","Yes, Undergraduate studies","N/A","N/A","N/A","5","4","4","1","0","0.5","stim/N000.jpg","65","76","0.433333316","3","0","3","","3","2","3","3","3","2","3","4","1","3","1","1","5","6","1","5","5","1","7","2","4","4","1","4","5","5","1","5","6","5","1","1","3","1","3","3","2","2","4","3","3","3","4","4","4","1","4","2","3","2","4","1","4","4","2","4","3","4","4","3","2","agree","416.80000000074506","","","","","","","","<div style=""font-size:60px;"">?</div>","65","5","1","0.8"
"image-keyboard-response","44","358883","0.0-11.0-0.5","nx58ov4n9htpu4z","1","6110e27590848aeaee9fc49a","19","10/2001","In a relationship","English","N/A","Female","Asian","No","High School","Yes, Undergraduate studies","N/A","N/A","N/A","5","4","4","1","0","0.5","stim/N000.jpg","65","76","0.433333316","3","0","3","","3","2","3","3","3","2","3","4","1","3","1","1","5","6","1","5","5","1","7","2","4","4","1","4","5","5","1","5","6","5","1","1","3","1","3","3","2","2","4","3","3","3","4","4","4","1","4","2","3","2","4","1","4","4","2","4","3","4","4","3","2","agree","null","","","","","","","","stim/H250.jpg","null","","",""
"html-keyboard-response","45","359724","0.0-11.0-1.5","nx58ov4n9htpu4z","1","6110e27590848aeaee9fc49a","19","10/2001","In a relationship","English","N/A","Female","Asian","No","High School","Yes, Undergraduate studies","N/A","N/A","N/A","5","4","4","1","0","0.5","stim/N000.jpg","65","76","0.433333316","3","0","3","","3","2","3","3","3","2","3","4","1","3","1","1","5","6","1","5","5","1","7","2","4","4","1","4","5","5","1","5","6","5","1","1","3","1","3","3","2","2","4","3","3","3","4","4","4","1","4","2","3","2","4","1","4","4","2","4","3","4","4","3","2","agree","840.5","","","","","","","","<div style=""font-size:60px;"">?</div>","65","6","1","0.8"
"image-keyboard-response","46","360744","0.0-11.0-0.6","nx58ov4n9htpu4z","1","6110e27590848aeaee9fc49a","19","10/2001","In a relationship","English","N/A","Female","Asian","No","High School","Yes, Undergraduate studies","N/A","N/A","N/A","5","4","4","1","0","0.5","stim/N000.jpg","65","76","0.433333316","3","0","3","","3","2","3","3","3","2","3","4","1","3","1","1","5","6","1","5","5","1","7","2","4","4","1","4","5","5","1","5","6","5","1","1","3","1","3","3","2","2","4","3","3","3","4","4","4","1","4","2","3","2","4","1","4","4","2","4","3","4","4","3","2","agree","null","","","","","","","","stim/H300.jpg","null","","",""
"html-keyboard-response","47","363399","0.0-11.0-1.6","nx58ov4n9htpu4z","1","6110e27590848aeaee9fc49a","19","10/2001","In a relationship","English","N/A","Female","Asian","No","High School","Yes, Undergraduate studies","N/A","N/A","N/A","5","4","4","1","0","0.5","stim/N000.jpg","65","76","0.433333316","3","0","3","","3","2","3","3","3","2","3","4","1","3","1","1","5","6","1","5","5","1","7","2","4","4","1","4","5","5","1","5","6","5","1","1","3","1","3","3","2","2","4","3","3","3","4","4","4","1","4","2","3","2","4","1","4","4","2","4","3","4","4","3","2","agree","2653.800000000745","","","","","","","","<div style=""font-size:60px;"">?</div>","76","7","1","0.8"
"image-keyboard-response","48","364426","0.0-11.0-0.7","nx58ov4n9htpu4z","1","6110e27590848aeaee9fc49a","19","10/2001","In a relationship","English","N/A","Female","Asian","No","High School","Yes, Undergraduate studies","N/A","N/A","N/A","5","4","4","1","0","0.5","stim/N000.jpg","65","76","0.433333316","3","0","3","","3","2","3","3","3","2","3","4","1","3","1","1","5","6","1","5","5","1","7","2","4","4","1","4","5","5","1","5","6","5","1","1","3","1","3","3","2","2","4","3","3","3","4","4","4","1","4","2","3","2","4","1","4","4","2","4","3","4","4","3","2","agree","null","","","","","","","","stim/H070.jpg","null","","",""
"html-keyboard-response","49","367560","0.0-11.0-1.7","nx58ov4n9htpu4z","1","6110e27590848aeaee9fc49a","19","10/2001","In a relationship","English","N/A","Female","Asian","No","High School","Yes, Undergraduate studies","N/A","N/A","N/A","5","4","4","1","0","0.5","stim/N000.jpg","65","76","0.433333316","3","0","3","","3","2","3","3","3","2","3","4","1","3","1","1","5","6","1","5","5","1","7","2","4","4","1","4","5","5","1","5","6","5","1","1","3","1","3","3","2","2","4","3","3","3","4","4","4","1","4","2","3","2","4","1","4","4","2","4","3","4","4","3","2","agree","3133.400000002235","","","","","","","","<div style=""font-size:60px;"">?</div>","76","8","1","0.8"
"image-keyboard-response","50","368578","0.0-11.0-0.8","nx58ov4n9htpu4z","1","6110e27590848aeaee9fc49a","19","10/2001","In a relationship","English","N/A","Female","Asian","No","High School","Yes, Undergraduate studies","N/A","N/A","N/A","5","4","4","1","0","0.5","stim/N000.jpg","65","76","0.433333316","3","0","3","","3","2","3","3","3","2","3","4","1","3","1","1","5","6","1","5","5","1","7","2","4","4","1","4","5","5","1","5","6","5","1","1","3","1","3","3","2","2","4","3","3","3","4","4","4","1","4","2","3","2","4","1","4","4","2","4","3","4","4","3","2","agree","null","","","","","","","","stim/H040.jpg","null","","",""
"html-keyboard-response","51","370449","0.0-11.0-1.8","nx58ov4n9htpu4z","1","6110e27590848aeaee9fc49a","19","10/2001","In a relationship","English","N/A","Female","Asian","No","High School","Yes, Undergraduate studies","N/A","N/A","N/A","5","4","4","1","0","0.5","stim/N000.jpg","65","76","0.433333316","3","0","3","","3","2","3","3","3","2","3","4","1","3","1","1","5","6","1","5","5","1","7","2","4","4","1","4","5","5","1","5","6","5","1","1","3","1","3","3","2","2","4","3","3","3","4","4","4","1","4","2","3","2","4","1","4","4","2","4","3","4","4","3","2","agree","1870.2000000029802","","","","","","","","<div style=""font-size:60px;"">?</div>","76","9","1","0.8"
"image-keyboard-response","52","371468","0.0-11.0-0.9","nx58ov4n9htpu4z","1","6110e27590848aeaee9fc49a","19","10/2001","In a relationship","English","N/A","Female","Asian","No","High School","Yes, Undergraduate studies","N/A","N/A","N/A","5","4","4","1","0","0.5","stim/N000.jpg","65","76","0.433333316","3","0","3","","3","2","3","3","3","2","3","4","1","3","1","1","5","6","1","5","5","1","7","2","4","4","1","4","5","5","1","5","6","5","1","1","3","1","3","3","2","2","4","3","3","3","4","4","4","1","4","2","3","2","4","1","4","4","2","4","3","4","4","3","2","agree","null","","","","","","","","stim/H110.jpg","null","","",""
"html-keyboard-response","53","373618","0.0-11.0-1.9","nx58ov4n9htpu4z","1","6110e27590848aeaee9fc49a","19","10/2001","In a relationship","English","N/A","Female","Asian","No","High School","Yes, Undergraduate studies","N/A","N/A","N/A","5","4","4","1","0","0.5","stim/N000.jpg","65","76","0.433333316","3","0","3","","3","2","3","3","3","2","3","4","1","3","1","1","5","6","1","5","5","1","7","2","4","4","1","4","5","5","1","5","6","5","1","1","3","1","3","3","2","2","4","3","3","3","4","4","4","1","4","2","3","2","4","1","4","4","2","4","3","4","4","3","2","agree","2149.199999999255","","","","","","","","<div style=""font-size:60px;"">?</div>","76","10","1","0.8"
"image-keyboard-response","54","374636","0.0-11.0-0.10","nx58ov4n9htpu4z","1","6110e27590848aeaee9fc49a","19","10/2001","In a relationship","English","N/A","Female","Asian","No","High School","Yes, Undergraduate studies","N/A","N/A","N/A","5","4","4","1","0","0.5","stim/N000.jpg","65","76","0.433333316","3","0","3","","3","2","3","3","3","2","3","4","1","3","1","1","5","6","1","5","5","1","7","2","4","4","1","4","5","5","1","5","6","5","1","1","3","1","3","3","2","2","4","3","3","3","4","4","4","1","4","2","3","2","4","1","4","4","2","4","3","4","4","3","2","agree","null","","","","","","","","stim/T030.jpg","null","","",""
"html-keyboard-response","55","375723","0.0-11.0-1.10","nx58ov4n9htpu4z","1","6110e27590848aeaee9fc49a","19","10/2001","In a relationship","English","N/A","Female","Asian","No","High School","Yes, Undergraduate studies","N/A","N/A","N/A","5","4","4","1","0","0.5","stim/N000.jpg","65","76","0.433333316","3","0","3","","3","2","3","3","3","2","3","4","1","3","1","1","5","6","1","5","5","1","7","2","4","4","1","4","5","5","1","5","6","5","1","1","3","1","3","3","2","2","4","3","3","3","4","4","4","1","4","2","3","2","4","1","4","4","2","4","3","4","4","3","2","agree","1086.3999999985099","","","","","","","","<div style=""font-size:60px;"">?</div>","65","11","1","0.8"
"image-keyboard-response","56","376738","0.0-11.0-0.11","nx58ov4n9htpu4z","1","6110e27590848aeaee9fc49a","19","10/2001","In a relationship","English","N/A","Female","Asian","No","High School","Yes, Undergraduate studies","N/A","N/A","N/A","5","4","4","1","0","0.5","stim/N000.jpg","65","76","0.433333316","3","0","3","","3","2","3","3","3","2","3","4","1","3","1","1","5","6","1","5","5","1","7","2","4","4","1","4","5","5","1","5","6","5","1","1","3","1","3","3","2","2","4","3","3","3","4","4","4","1","4","2","3","2","4","1","4","4","2","4","3","4","4","3","2","agree","null","","","","","","","","stim/T110.jpg","null","","",""
"html-keyboard-response","57","376895","0.0-11.0-1.11","nx58ov4n9htpu4z","1","6110e27590848aeaee9fc49a","19","10/2001","In a relationship","English","N/A","Female","Asian","No","High School","Yes, Undergraduate studies","N/A","N/A","N/A","5","4","4","1","0","0.5","stim/N000.jpg","65","76","0.433333316","3","0","3","","3","2","3","3","3","2","3","4","1","3","1","1","5","6","1","5","5","1","7","2","4","4","1","4","5","5","1","5","6","5","1","1","3","1","3","3","2","2","4","3","3","3","4","4","4","1","4","2","3","2","4","1","4","4","2","4","3","4","4","3","2","agree","155.80000000074506","","","","","","","","<div style=""font-size:60px;"">?</div>","65","12","1","0.8"
"image-keyboard-response","58","377921","0.0-11.0-0.12","nx58ov4n9htpu4z","1","6110e27590848aeaee9fc49a","19","10/2001","In a relationship","English","N/A","Female","Asian","No","High School","Yes, Undergraduate studies","N/A","N/A","N/A","5","4","4","1","0","0.5","stim/N000.jpg","65","76","0.433333316","3","0","3","","3","2","3","3","3","2","3","4","1","3","1","1","5","6","1","5","5","1","7","2","4","4","1","4","5","5","1","5","6","5","1","1","3","1","3","3","2","2","4","3","3","3","4","4","4","1","4","2","3","2","4","1","4","4","2","4","3","4","4","3","2","agree","null","","","","","","","","stim/H220.jpg","null","","",""
"html-keyboard-response","59","378747","0.0-11.0-1.12","nx58ov4n9htpu4z","1","6110e27590848aeaee9fc49a","19","10/2001","In a relationship","English","N/A","Female","Asian","No","High School","Yes, Undergraduate studies","N/A","N/A","N/A","5","4","4","1","0","0.5","stim/N000.jpg","65","76","0.433333316","3","0","3","","3","2","3","3","3","2","3","4","1","3","1","1","5","6","1","5","5","1","7","2","4","4","1","4","5","5","1","5","6","5","1","1","3","1","3","3","2","2","4","3","3","3","4","4","4","1","4","2","3","2","4","1","4","4","2","4","3","4","4","3","2","agree","825.3999999985099","","","","","","","","<div style=""font-size:60px;"">?</div>","65","13","1","0.8"
"image-keyboard-response","60","379776","0.0-11.0-0.13","nx58ov4n9htpu4z","1","6110e27590848aeaee9fc49a","19","10/2001","In a relationship","English","N/A","Female","Asian","No","High School","Yes, Undergraduate studies","N/A","N/A","N/A","5","4","4","1","0","0.5","stim/N000.jpg","65","76","0.433333316","3","0","3","","3","2","3","3","3","2","3","4","1","3","1","1","5","6","1","5","5","1","7","2","4","4","1","4","5","5","1","5","6","5","1","1","3","1","3","3","2","2","4","3","3","3","4","4","4","1","4","2","3","2","4","1","4","4","2","4","3","4","4","3","2","agree","null","","","","","","","","stim/H280.jpg","null","","",""
"html-keyboard-response","61","380881","0.0-11.0-1.13","nx58ov4n9htpu4z","1","6110e27590848aeaee9fc49a","19","10/2001","In a relationship","English","N/A","Female","Asian","No","High School","Yes, Undergraduate studies","N/A","N/A","N/A","5","4","4","1","0","0.5","stim/N000.jpg","65","76","0.433333316","3","0","3","","3","2","3","3","3","2","3","4","1","3","1","1","5","6","1","5","5","1","7","2","4","4","1","4","5","5","1","5","6","5","1","1","3","1","3","3","2","2","4","3","3","3","4","4","4","1","4","2","3","2","4","1","4","4","2","4","3","4","4","3","2","agree","1104.800000000745","","","","","","","","<div style=""font-size:60px;"">?</div>","76","14","1","0.8"
"image-keyboard-response","62","381898","0.0-11.0-0.14","nx58ov4n9htpu4z","1","6110e27590848aeaee9fc49a","19","10/2001","In a relationship","English","N/A","Female","Asian","No","High School","Yes, Undergraduate studies","N/A","N/A","N/A","5","4","4","1","0","0.5","stim/N000.jpg","65","76","0.433333316","3","0","3","","3","2","3","3","3","2","3","4","1","3","1","1","5","6","1","5","5","1","7","2","4","4","1","4","5","5","1","5","6","5","1","1","3","1","3","3","2","2","4","3","3","3","4","4","4","1","4","2","3","2","4","1","4","4","2","4","3","4","4","3","2","agree","null","","","","","","","","stim/H290.jpg","null","","",""
"html-keyboard-response","63","382389","0.0-11.0-1.14","nx58ov4n9htpu4z","1","6110e27590848aeaee9fc49a","19","10/2001","In a relationship","English","N/A","Female","Asian","No","High School","Yes, Undergraduate studies","N/A","N/A","N/A","5","4","4","1","0","0.5","stim/N000.jpg","65","76","0.433333316","3","0","3","","3","2","3","3","3","2","3","4","1","3","1","1","5","6","1","5","5","1","7","2","4","4","1","4","5","5","1","5","6","5","1","1","3","1","3","3","2","2","4","3","3","3","4","4","4","1","4","2","3","2","4","1","4","4","2","4","3","4","4","3","2","agree","489.69999999925494","","","","","","","","<div style=""font-size:60px;"">?</div>","76","15","1","0.8"
"image-keyboard-response","64","383401","0.0-11.0-0.15","nx58ov4n9htpu4z","1","6110e27590848aeaee9fc49a","19","10/2001","In a relationship","English","N/A","Female","Asian","No","High School","Yes, Undergraduate studies","N/A","N/A","N/A","5","4","4","1","0","0.5","stim/N000.jpg","65","76","0.433333316","3","0","3","","3","2","3","3","3","2","3","4","1","3","1","1","5","6","1","5","5","1","7","2","4","4","1","4","5","5","1","5","6","5","1","1","3","1","3","3","2","2","4","3","3","3","4","4","4","1","4","2","3","2","4","1","4","4","2","4","3","4","4","3","2","agree","null","","","","","","","","stim/H160.jpg","null","","",""
"html-keyboard-response","65","383874","0.0-11.0-1.15","nx58ov4n9htpu4z","1","6110e27590848aeaee9fc49a","19","10/2001","In a relationship","English","N/A","Female","Asian","No","High School","Yes, Undergraduate studies","N/A","N/A","N/A","5","4","4","1","0","0.5","stim/N000.jpg","65","76","0.433333316","3","0","3","","3","2","3","3","3","2","3","4","1","3","1","1","5","6","1","5","5","1","7","2","4","4","1","4","5","5","1","5","6","5","1","1","3","1","3","3","2","2","4","3","3","3","4","4","4","1","4","2","3","2","4","1","4","4","2","4","3","4","4","3","2","agree","472","","","","","","","","<div style=""font-size:60px;"">?</div>","76","16","1","0.8"
"image-keyboard-response","66","384885","0.0-11.0-0.16","nx58ov4n9htpu4z","1","6110e27590848aeaee9fc49a","19","10/2001","In a relationship","English","N/A","Female","Asian","No","High School","Yes, Undergraduate studies","N/A","N/A","N/A","5","4","4","1","0","0.5","stim/N000.jpg","65","76","0.433333316","3","0","3","","3","2","3","3","3","2","3","4","1","3","1","1","5","6","1","5","5","1","7","2","4","4","1","4","5","5","1","5","6","5","1","1","3","1","3","3","2","2","4","3","3","3","4","4","4","1","4","2","3","2","4","1","4","4","2","4","3","4","4","3","2","agree","null","","","","","","","","stim/H230.jpg","null","","",""
"html-keyboard-response","67","386516","0.0-11.0-1.16","nx58ov4n9htpu4z","1","6110e27590848aeaee9fc49a","19","10/2001","In a relationship","English","N/A","Female","Asian","No","High School","Yes, Undergraduate studies","N/A","N/A","N/A","5","4","4","1","0","0.5","stim/N000.jpg","65","76","0.433333316","3","0","3","","3","2","3","3","3","2","3","4","1","3","1","1","5","6","1","5","5","1","7","2","4","4","1","4","5","5","1","5","6","5","1","1","3","1","3","3","2","2","4","3","3","3","4","4","4","1","4","2","3","2","4","1","4","4","2","4","3","4","4","3","2","agree","1630.3999999985099","","","","","","","","<div style=""font-size:60px;"">?</div>","65","17","1","0.8"
"image-keyboard-response","68","387532","0.0-11.0-0.17","nx58ov4n9htpu4z","1","6110e27590848aeaee9fc49a","19","10/2001","In a relationship","English","N/A","Female","Asian","No","High School","Yes, Undergraduate studies","N/A","N/A","N/A","5","4","4","1","0","0.5","stim/N000.jpg","65","76","0.433333316","3","0","3","","3","2","3","3","3","2","3","4","1","3","1","1","5","6","1","5","5","1","7","2","4","4","1","4","5","5","1","5","6","5","1","1","3","1","3","3","2","2","4","3","3","3","4","4","4","1","4","2","3","2","4","1","4","4","2","4","3","4","4","3","2","agree","null","","","","","","","","stim/H070.jpg","null","","",""
"html-keyboard-response","69","387800","0.0-11.0-1.17","nx58ov4n9htpu4z","1","6110e27590848aeaee9fc49a","19","10/2001","In a relationship","English","N/A","Female","Asian","No","High School","Yes, Undergraduate studies","N/A","N/A","N/A","5","4","4","1","0","0.5","stim/N000.jpg","65","76","0.433333316","3","0","3","","3","2","3","3","3","2","3","4","1","3","1","1","5","6","1","5","5","1","7","2","4","4","1","4","5","5","1","5","6","5","1","1","3","1","3","3","2","2","4","3","3","3","4","4","4","1","4","2","3","2","4","1","4","4","2","4","3","4","4","3","2","agree","267.29999999701977","","","","","","","","<div style=""font-size:60px;"">?</div>","65","18","1","0.8"
"image-keyboard-response","70","388823","0.0-11.0-0.18","nx58ov4n9htpu4z","1","6110e27590848aeaee9fc49a","19","10/2001","In a relationship","English","N/A","Female","Asian","No","High School","Yes, Undergraduate studies","N/A","N/A","N/A","5","4","4","1","0","0.5","stim/N000.jpg","65","76","0.433333316","3","0","3","","3","2","3","3","3","2","3","4","1","3","1","1","5","6","1","5","5","1","7","2","4","4","1","4","5","5","1","5","6","5","1","1","3","1","3","3","2","2","4","3","3","3","4","4","4","1","4","2","3","2","4","1","4","4","2","4","3","4","4","3","2","agree","null","","","","","","","","stim/H270.jpg","null","","",""
"html-keyboard-response","71","389208","0.0-11.0-1.18","nx58ov4n9htpu4z","1","6110e27590848aeaee9fc49a","19","10/2001","In a relationship","English","N/A","Female","Asian","No","High School","Yes, Undergraduate studies","N/A","N/A","N/A","5","4","4","1","0","0.5","stim/N000.jpg","65","76","0.433333316","3","0","3","","3","2","3","3","3","2","3","4","1","3","1","1","5","6","1","5","5","1","7","2","4","4","1","4","5","5","1","5","6","5","1","1","3","1","3","3","2","2","4","3","3","3","4","4","4","1","4","2","3","2","4","1","4","4","2","4","3","4","4","3","2","agree","384.30000000074506","","","","","","","","<div style=""font-size:60px;"">?</div>","76","19","1","0.8"
"image-keyboard-response","72","390224","0.0-11.0-0.19","nx58ov4n9htpu4z","1","6110e27590848aeaee9fc49a","19","10/2001","In a relationship","English","N/A","Female","Asian","No","High School","Yes, Undergraduate studies","N/A","N/A","N/A","5","4","4","1","0","0.5","stim/N000.jpg","65","76","0.433333316","3","0","3","","3","2","3","3","3","2","3","4","1","3","1","1","5","6","1","5","5","1","7","2","4","4","1","4","5","5","1","5","6","5","1","1","3","1","3","3","2","2","4","3","3","3","4","4","4","1","4","2","3","2","4","1","4","4","2","4","3","4","4","3","2","agree","null","","","","","","","","stim/H300.jpg","null","","",""
"html-keyboard-response","73","391329","0.0-11.0-1.19","nx58ov4n9htpu4z","1","6110e27590848aeaee9fc49a","19","10/2001","In a relationship","English","N/A","Female","Asian","No","High School","Yes, Undergraduate studies","N/A","N/A","N/A","5","4","4","1","0","0.5","stim/N000.jpg","65","76","0.433333316","3","0","3","","3","2","3","3","3","2","3","4","1","3","1","1","5","6","1","5","5","1","7","2","4","4","1","4","5","5","1","5","6","5","1","1","3","1","3","3","2","2","4","3","3","3","4","4","4","1","4","2","3","2","4","1","4","4","2","4","3","4","4","3","2","agree","1104","","","","","","","","<div style=""font-size:60px;"">?</div>","65","20","1","0.8"
"image-keyboard-response","74","392344","0.0-11.0-0.20","nx58ov4n9htpu4z","1","6110e27590848aeaee9fc49a","19","10/2001","In a relationship","English","N/A","Female","Asian","No","High School","Yes, Undergraduate studies","N/A","N/A","N/A","5","4","4","1","0","0.5","stim/N000.jpg","65","76","0.433333316","3","0","3","","3","2","3","3","3","2","3","4","1","3","1","1","5","6","1","5","5","1","7","2","4","4","1","4","5","5","1","5","6","5","1","1","3","1","3","3","2","2","4","3","3","3","4","4","4","1","4","2","3","2","4","1","4","4","2","4","3","4","4","3","2","agree","null","","","","","","","","stim/H080.jpg","null","","",""
"html-keyboard-response","75","393061","0.0-11.0-1.20","nx58ov4n9htpu4z","1","6110e27590848aeaee9fc49a","19","10/2001","In a relationship","English","N/A","Female","Asian","No","High School","Yes, Undergraduate studies","N/A","N/A","N/A","5","4","4","1","0","0.5","stim/N000.jpg","65","76","0.433333316","3","0","3","","3","2","3","3","3","2","3","4","1","3","1","1","5","6","1","5","5","1","7","2","4","4","1","4","5","5","1","5","6","5","1","1","3","1","3","3","2","2","4","3","3","3","4","4","4","1","4","2","3","2","4","1","4","4","2","4","3","4","4","3","2","agree","715.8999999985099","","","","","","","","<div style=""font-size:60px;"">?</div>","65","21","1","0.8"
"image-keyboard-response","76","394084","0.0-11.0-0.21","nx58ov4n9htpu4z","1","6110e27590848aeaee9fc49a","19","10/2001","In a relationship","English","N/A","Female","Asian","No","High School","Yes, Undergraduate studies","N/A","N/A","N/A","5","4","4","1","0","0.5","stim/N000.jpg","65","76","0.433333316","3","0","3","","3","2","3","3","3","2","3","4","1","3","1","1","5","6","1","5","5","1","7","2","4","4","1","4","5","5","1","5","6","5","1","1","3","1","3","3","2","2","4","3","3","3","4","4","4","1","4","2","3","2","4","1","4","4","2","4","3","4","4","3","2","agree","null","","","","","","","","stim/H030.jpg","null","","",""
"html-keyboard-response","77","394445","0.0-11.0-1.21","nx58ov4n9htpu4z","1","6110e27590848aeaee9fc49a","19","10/2001","In a relationship","English","N/A","Female","Asian","No","High School","Yes, Undergraduate studies","N/A","N/A","N/A","5","4","4","1","0","0.5","stim/N000.jpg","65","76","0.433333316","3","0","3","","3","2","3","3","3","2","3","4","1","3","1","1","5","6","1","5","5","1","7","2","4","4","1","4","5","5","1","5","6","5","1","1","3","1","3","3","2","2","4","3","3","3","4","4","4","1","4","2","3","2","4","1","4","4","2","4","3","4","4","3","2","agree","360.5999999977648","","","","","","","","<div style=""font-size:60px;"">?</div>","65","22","1","0.8"
"image-keyboard-response","78","395471","0.0-11.0-0.22","nx58ov4n9htpu4z","1","6110e27590848aeaee9fc49a","19","10/2001","In a relationship","English","N/A","Female","Asian","No","High School","Yes, Undergraduate studies","N/A","N/A","N/A","5","4","4","1","0","0.5","stim/N000.jpg","65","76","0.433333316","3","0","3","","3","2","3","3","3","2","3","4","1","3","1","1","5","6","1","5","5","1","7","2","4","4","1","4","5","5","1","5","6","5","1","1","3","1","3","3","2","2","4","3","3","3","4","4","4","1","4","2","3","2","4","1","4","4","2","4","3","4","4","3","2","agree","null","","","","","","","","stim/T020.jpg","null","","",""
"html-keyboard-response","79","395755","0.0-11.0-1.22","nx58ov4n9htpu4z","1","6110e27590848aeaee9fc49a","19","10/2001","In a relationship","English","N/A","Female","Asian","No","High School","Yes, Undergraduate studies","N/A","N/A","N/A","5","4","4","1","0","0.5","stim/N000.jpg","65","76","0.433333316","3","0","3","","3","2","3","3","3","2","3","4","1","3","1","1","5","6","1","5","5","1","7","2","4","4","1","4","5","5","1","5","6","5","1","1","3","1","3","3","2","2","4","3","3","3","4","4","4","1","4","2","3","2","4","1","4","4","2","4","3","4","4","3","2","agree","283.20000000298023","","","","","","","","<div style=""font-size:60px;"">?</div>","65","23","1","0.8"
"image-keyboard-response","80","396768","0.0-11.0-0.23","nx58ov4n9htpu4z","1","6110e27590848aeaee9fc49a","19","10/2001","In a relationship","English","N/A","Female","Asian","No","High School","Yes, Undergraduate studies","N/A","N/A","N/A","5","4","4","1","0","0.5","stim/N000.jpg","65","76","0.433333316","3","0","3","","3","2","3","3","3","2","3","4","1","3","1","1","5","6","1","5","5","1","7","2","4","4","1","4","5","5","1","5","6","5","1","1","3","1","3","3","2","2","4","3","3","3","4","4","4","1","4","2","3","2","4","1","4","4","2","4","3","4","4","3","2","agree","null","","","","","","","","stim/H060.jpg","null","","",""
"html-keyboard-response","81","399698","0.0-11.0-1.23","nx58ov4n9htpu4z","1","6110e27590848aeaee9fc49a","19","10/2001","In a relationship","English","N/A","Female","Asian","No","High School","Yes, Undergraduate studies","N/A","N/A","N/A","5","4","4","1","0","0.5","stim/N000.jpg","65","76","0.433333316","3","0","3","","3","2","3","3","3","2","3","4","1","3","1","1","5","6","1","5","5","1","7","2","4","4","1","4","5","5","1","5","6","5","1","1","3","1","3","3","2","2","4","3","3","3","4","4","4","1","4","2","3","2","4","1","4","4","2","4","3","4","4","3","2","agree","2929.60000000149","","","","","","","","<div style=""font-size:60px;"">?</div>","65","24","1","0.8"
"image-keyboard-response","82","400720","0.0-11.0-0.24","nx58ov4n9htpu4z","1","6110e27590848aeaee9fc49a","19","10/2001","In a relationship","English","N/A","Female","Asian","No","High School","Yes, Undergraduate studies","N/A","N/A","N/A","5","4","4","1","0","0.5","stim/N000.jpg","65","76","0.433333316","3","0","3","","3","2","3","3","3","2","3","4","1","3","1","1","5","6","1","5","5","1","7","2","4","4","1","4","5","5","1","5","6","5","1","1","3","1","3","3","2","2","4","3","3","3","4","4","4","1","4","2","3","2","4","1","4","4","2","4","3","4","4","3","2","agree","null","","","","","","","","stim/H010.jpg","null","","",""
"html-keyboard-response","83","401159","0.0-11.0-1.24","nx58ov4n9htpu4z","1","6110e27590848aeaee9fc49a","19","10/2001","In a relationship","English","N/A","Female","Asian","No","High School","Yes, Undergraduate studies","N/A","N/A","N/A","5","4","4","1","0","0.5","stim/N000.jpg","65","76","0.433333316","3","0","3","","3","2","3","3","3","2","3","4","1","3","1","1","5","6","1","5","5","1","7","2","4","4","1","4","5","5","1","5","6","5","1","1","3","1","3","3","2","2","4","3","3","3","4","4","4","1","4","2","3","2","4","1","4","4","2","4","3","4","4","3","2","agree","438.19999999925494","","","","","","","","<div style=""font-size:60px;"">?</div>","65","25","1","0.8"
"image-keyboard-response","84","402182","0.0-11.0-0.25","nx58ov4n9htpu4z","1","6110e27590848aeaee9fc49a","19","10/2001","In a relationship","English","N/A","Female","Asian","No","High School","Yes, Undergraduate studies","N/A","N/A","N/A","5","4","4","1","0","0.5","stim/N000.jpg","65","76","0.433333316","3","0","3","","3","2","3","3","3","2","3","4","1","3","1","1","5","6","1","5","5","1","7","2","4","4","1","4","5","5","1","5","6","5","1","1","3","1","3","3","2","2","4","3","3","3","4","4","4","1","4","2","3","2","4","1","4","4","2","4","3","4","4","3","2","agree","null","","","","","","","","stim/H210.jpg","null","","",""
"html-keyboard-response","85","402559","0.0-11.0-1.25","nx58ov4n9htpu4z","1","6110e27590848aeaee9fc49a","19","10/2001","In a relationship","English","N/A","Female","Asian","No","High School","Yes, Undergraduate studies","N/A","N/A","N/A","5","4","4","1","0","0.5","stim/N000.jpg","65","76","0.433333316","3","0","3","","3","2","3","3","3","2","3","4","1","3","1","1","5","6","1","5","5","1","7","2","4","4","1","4","5","5","1","5","6","5","1","1","3","1","3","3","2","2","4","3","3","3","4","4","4","1","4","2","3","2","4","1","4","4","2","4","3","4","4","3","2","agree","376","","","","","","","","<div style=""font-size:60px;"">?</div>","76","26","1","0.8"
"image-keyboard-response","86","403584","0.0-11.0-0.26","nx58ov4n9htpu4z","1","6110e27590848aeaee9fc49a","19","10/2001","In a relationship","English","N/A","Female","Asian","No","High School","Yes, Undergraduate studies","N/A","N/A","N/A","5","4","4","1","0","0.5","stim/N000.jpg","65","76","0.433333316","3","0","3","","3","2","3","3","3","2","3","4","1","3","1","1","5","6","1","5","5","1","7","2","4","4","1","4","5","5","1","5","6","5","1","1","3","1","3","3","2","2","4","3","3","3","4","4","4","1","4","2","3","2","4","1","4","4","2","4","3","4","4","3","2","agree","null","","","","","","","","stim/H290.jpg","null","","",""
"html-keyboard-response","87","403916","0.0-11.0-1.26","nx58ov4n9htpu4z","1","6110e27590848aeaee9fc49a","19","10/2001","In a relationship","English","N/A","Female","Asian","No","High School","Yes, Undergraduate studies","N/A","N/A","N/A","5","4","4","1","0","0.5","stim/N000.jpg","65","76","0.433333316","3","0","3","","3","2","3","3","3","2","3","4","1","3","1","1","5","6","1","5","5","1","7","2","4","4","1","4","5","5","1","5","6","5","1","1","3","1","3","3","2","2","4","3","3","3","4","4","4","1","4","2","3","2","4","1","4","4","2","4","3","4","4","3","2","agree","331","","","","","","","","<div style=""font-size:60px;"">?</div>","76","27","1","0.8"
"image-keyboard-response","88","404938","0.0-11.0-0.27","nx58ov4n9htpu4z","1","6110e27590848aeaee9fc49a","19","10/2001","In a relationship","English","N/A","Female","Asian","No","High School","Yes, Undergraduate studies","N/A","N/A","N/A","5","4","4","1","0","0.5","stim/N000.jpg","65","76","0.433333316","3","0","3","","3","2","3","3","3","2","3","4","1","3","1","1","5","6","1","5","5","1","7","2","4","4","1","4","5","5","1","5","6","5","1","1","3","1","3","3","2","2","4","3","3","3","4","4","4","1","4","2","3","2","4","1","4","4","2","4","3","4","4","3","2","agree","null","","","","","","","","stim/H040.jpg","null","","",""
"html-keyboard-response","89","405128","0.0-11.0-1.27","nx58ov4n9htpu4z","1","6110e27590848aeaee9fc49a","19","10/2001","In a relationship","English","N/A","Female","Asian","No","High School","Yes, Undergraduate studies","N/A","N/A","N/A","5","4","4","1","0","0.5","stim/N000.jpg","65","76","0.433333316","3","0","3","","3","2","3","3","3","2","3","4","1","3","1","1","5","6","1","5","5","1","7","2","4","4","1","4","5","5","1","5","6","5","1","1","3","1","3","3","2","2","4","3","3","3","4","4","4","1","4","2","3","2","4","1","4","4","2","4","3","4","4","3","2","agree","189.19999999925494","","","","","","","","<div style=""font-size:60px;"">?</div>","65","28","1","0.8"
"image-keyboard-response","90","406146","0.0-11.0-0.28","nx58ov4n9htpu4z","1","6110e27590848aeaee9fc49a","19","10/2001","In a relationship","English","N/A","Female","Asian","No","High School","Yes, Undergraduate studies","N/A","N/A","N/A","5","4","4","1","0","0.5","stim/N000.jpg","65","76","0.433333316","3","0","3","","3","2","3","3","3","2","3","4","1","3","1","1","5","6","1","5","5","1","7","2","4","4","1","4","5","5","1","5","6","5","1","1","3","1","3","3","2","2","4","3","3","3","4","4","4","1","4","2","3","2","4","1","4","4","2","4","3","4","4","3","2","agree","null","","","","","","","","stim/H170.jpg","null","","",""
"html-keyboard-response","91","407712","0.0-11.0-1.28","nx58ov4n9htpu4z","1","6110e27590848aeaee9fc49a","19","10/2001","In a relationship","English","N/A","Female","Asian","No","High School","Yes, Undergraduate studies","N/A","N/A","N/A","5","4","4","1","0","0.5","stim/N000.jpg","65","76","0.433333316","3","0","3","","3","2","3","3","3","2","3","4","1","3","1","1","5","6","1","5","5","1","7","2","4","4","1","4","5","5","1","5","6","5","1","1","3","1","3","3","2","2","4","3","3","3","4","4","4","1","4","2","3","2","4","1","4","4","2","4","3","4","4","3","2","agree","1565.6000000014901","","","","","","","","<div style=""font-size:60px;"">?</div>","65","29","1","0.8"
"image-keyboard-response","92","408734","0.0-11.0-0.29","nx58ov4n9htpu4z","1","6110e27590848aeaee9fc49a","19","10/2001","In a relationship","English","N/A","Female","Asian","No","High School","Yes, Undergraduate studies","N/A","N/A","N/A","5","4","4","1","0","0.5","stim/N000.jpg","65","76","0.433333316","3","0","3","","3","2","3","3","3","2","3","4","1","3","1","1","5","6","1","5","5","1","7","2","4","4","1","4","5","5","1","5","6","5","1","1","3","1","3","3","2","2","4","3","3","3","4","4","4","1","4","2","3","2","4","1","4","4","2","4","3","4","4","3","2","agree","null","","","","","","","","stim/H250.jpg","null","","",""
"html-keyboard-response","93","408904","0.0-11.0-1.29","nx58ov4n9htpu4z","1","6110e27590848aeaee9fc49a","19","10/2001","In a relationship","English","N/A","Female","Asian","No","High School","Yes, Undergraduate studies","N/A","N/A","N/A","5","4","4","1","0","0.5","stim/N000.jpg","65","76","0.433333316","3","0","3","","3","2","3","3","3","2","3","4","1","3","1","1","5","6","1","5","5","1","7","2","4","4","1","4","5","5","1","5","6","5","1","1","3","1","3","3","2","2","4","3","3","3","4","4","4","1","4","2","3","2","4","1","4","4","2","4","3","4","4","3","2","agree","170","","","","","","","","<div style=""font-size:60px;"">?</div>","76","30","1","0.8"
"image-keyboard-response","94","409919","0.0-11.0-0.30","nx58ov4n9htpu4z","1","6110e27590848aeaee9fc49a","19","10/2001","In a relationship","English","N/A","Female","Asian","No","High School","Yes, Undergraduate studies","N/A","N/A","N/A","5","4","4","1","0","0.5","stim/N000.jpg","65","76","0.433333316","3","0","3","","3","2","3","3","3","2","3","4","1","3","1","1","5","6","1","5","5","1","7","2","4","4","1","4","5","5","1","5","6","5","1","1","3","1","3","3","2","2","4","3","3","3","4","4","4","1","4","2","3","2","4","1","4","4","2","4","3","4","4","3","2","agree","null","","","","","","","","stim/H140.jpg","null","","",""
"html-keyboard-response","95","410397","0.0-11.0-1.30","nx58ov4n9htpu4z","1","6110e27590848aeaee9fc49a","19","10/2001","In a relationship","English","N/A","Female","Asian","No","High School","Yes, Undergraduate studies","N/A","N/A","N/A","5","4","4","1","0","0.5","stim/N000.jpg","65","76","0.433333316","3","0","3","","3","2","3","3","3","2","3","4","1","3","1","1","5","6","1","5","5","1","7","2","4","4","1","4","5","5","1","5","6","5","1","1","3","1","3","3","2","2","4","3","3","3","4","4","4","1","4","2","3","2","4","1","4","4","2","4","3","4","4","3","2","agree","476.70000000298023","","","","","","","","<div style=""font-size:60px;"">?</div>","65","31","1","0.8"
"image-keyboard-response","96","411417","0.0-11.0-0.31","nx58ov4n9htpu4z","1","6110e27590848aeaee9fc49a","19","10/2001","In a relationship","English","N/A","Female","Asian","No","High School","Yes, Undergraduate studies","N/A","N/A","N/A","5","4","4","1","0","0.5","stim/N000.jpg","65","76","0.433333316","3","0","3","","3","2","3","3","3","2","3","4","1","3","1","1","5","6","1","5","5","1","7","2","4","4","1","4","5","5","1","5","6","5","1","1","3","1","3","3","2","2","4","3","3","3","4","4","4","1","4","2","3","2","4","1","4","4","2","4","3","4","4","3","2","agree","null","","","","","","","","stim/T100.jpg","null","","",""
"html-keyboard-response","97","411789","0.0-11.0-1.31","nx58ov4n9htpu4z","1","6110e27590848aeaee9fc49a","19","10/2001","In a relationship","English","N/A","Female","Asian","No","High School","Yes, Undergraduate studies","N/A","N/A","N/A","5","4","4","1","0","0.5","stim/N000.jpg","65","76","0.433333316","3","0","3","","3","2","3","3","3","2","3","4","1","3","1","1","5","6","1","5","5","1","7","2","4","4","1","4","5","5","1","5","6","5","1","1","3","1","3","3","2","2","4","3","3","3","4","4","4","1","4","2","3","2","4","1","4","4","2","4","3","4","4","3","2","agree","370.5","","","","","","","","<div style=""font-size:60px;"">?</div>","65","32","1","0.8"
"image-keyboard-response","98","412805","0.0-11.0-0.32","nx58ov4n9htpu4z","1","6110e27590848aeaee9fc49a","19","10/2001","In a relationship","English","N/A","Female","Asian","No","High School","Yes, Undergraduate studies","N/A","N/A","N/A","5","4","4","1","0","0.5","stim/N000.jpg","65","76","0.433333316","3","0","3","","3","2","3","3","3","2","3","4","1","3","1","1","5","6","1","5","5","1","7","2","4","4","1","4","5","5","1","5","6","5","1","1","3","1","3","3","2","2","4","3","3","3","4","4","4","1","4","2","3","2","4","1","4","4","2","4","3","4","4","3","2","agree","null","","","","","","","","stim/H040.jpg","null","","",""
"html-keyboard-response","99","414202","0.0-11.0-1.32","nx58ov4n9htpu4z","1","6110e27590848aeaee9fc49a","19","10/2001","In a relationship","English","N/A","Female","Asian","No","High School","Yes, Undergraduate studies","N/A","N/A","N/A","5","4","4","1","0","0.5","stim/N000.jpg","65","76","0.433333316","3","0","3","","3","2","3","3","3","2","3","4","1","3","1","1","5","6","1","5","5","1","7","2","4","4","1","4","5","5","1","5","6","5","1","1","3","1","3","3","2","2","4","3","3","3","4","4","4","1","4","2","3","2","4","1","4","4","2","4","3","4","4","3","2","agree","1396.5","","","","","","","","<div style=""font-size:60px;"">?</div>","65","33","1","0.8"
"image-keyboard-response","100","415210","0.0-11.0-0.33","nx58ov4n9htpu4z","1","6110e27590848aeaee9fc49a","19","10/2001","In a relationship","English","N/A","Female","Asian","No","High School","Yes, Undergraduate studies","N/A","N/A","N/A","5","4","4","1","0","0.5","stim/N000.jpg","65","76","0.433333316","3","0","3","","3","2","3","3","3","2","3","4","1","3","1","1","5","6","1","5","5","1","7","2","4","4","1","4","5","5","1","5","6","5","1","1","3","1","3","3","2","2","4","3","3","3","4","4","4","1","4","2","3","2","4","1","4","4","2","4","3","4","4","3","2","agree","null","","","","","","","","stim/T100.jpg","null","","",""
"html-keyboard-response","101","415425","0.0-11.0-1.33","nx58ov4n9htpu4z","1","6110e27590848aeaee9fc49a","19","10/2001","In a relationship","English","N/A","Female","Asian","No","High School","Yes, Undergraduate studies","N/A","N/A","N/A","5","4","4","1","0","0.5","stim/N000.jpg","65","76","0.433333316","3","0","3","","3","2","3","3","3","2","3","4","1","3","1","1","5","6","1","5","5","1","7","2","4","4","1","4","5","5","1","5","6","5","1","1","3","1","3","3","2","2","4","3","3","3","4","4","4","1","4","2","3","2","4","1","4","4","2","4","3","4","4","3","2","agree","215.10000000149012","","","","","","","","<div style=""font-size:60px;"">?</div>","65","34","1","0.8"
"image-keyboard-response","102","416441","0.0-11.0-0.34","nx58ov4n9htpu4z","1","6110e27590848aeaee9fc49a","19","10/2001","In a relationship","English","N/A","Female","Asian","No","High School","Yes, Undergraduate studies","N/A","N/A","N/A","5","4","4","1","0","0.5","stim/N000.jpg","65","76","0.433333316","3","0","3","","3","2","3","3","3","2","3","4","1","3","1","1","5","6","1","5","5","1","7","2","4","4","1","4","5","5","1","5","6","5","1","1","3","1","3","3","2","2","4","3","3","3","4","4","4","1","4","2","3","2","4","1","4","4","2","4","3","4","4","3","2","agree","null","","","","","","","","stim/H020.jpg","null","","",""
"html-keyboard-response","103","416538","0.0-11.0-1.34","nx58ov4n9htpu4z","1","6110e27590848aeaee9fc49a","19","10/2001","In a relationship","English","N/A","Female","Asian","No","High School","Yes, Undergraduate studies","N/A","N/A","N/A","5","4","4","1","0","0.5","stim/N000.jpg","65","76","0.433333316","3","0","3","","3","2","3","3","3","2","3","4","1","3","1","1","5","6","1","5","5","1","7","2","4","4","1","4","5","5","1","5","6","5","1","1","3","1","3","3","2","2","4","3","3","3","4","4","4","1","4","2","3","2","4","1","4","4","2","4","3","4","4","3","2","agree","96.09999999776483","","","","","","","","<div style=""font-size:60px;"">?</div>","65","35","1","0.8"
"image-keyboard-response","104","417567","0.0-11.0-0.35","nx58ov4n9htpu4z","1","6110e27590848aeaee9fc49a","19","10/2001","In a relationship","English","N/A","Female","Asian","No","High School","Yes, Undergraduate studies","N/A","N/A","N/A","5","4","4","1","0","0.5","stim/N000.jpg","65","76","0.433333316","3","0","3","","3","2","3","3","3","2","3","4","1","3","1","1","5","6","1","5","5","1","7","2","4","4","1","4","5","5","1","5","6","5","1","1","3","1","3","3","2","2","4","3","3","3","4","4","4","1","4","2","3","2","4","1","4","4","2","4","3","4","4","3","2","agree","null","","","","","","","","stim/H130.jpg","null","","",""
"html-keyboard-response","105","418239","0.0-11.0-1.35","nx58ov4n9htpu4z","1","6110e27590848aeaee9fc49a","19","10/2001","In a relationship","English","N/A","Female","Asian","No","High School","Yes, Undergraduate studies","N/A","N/A","N/A","5","4","4","1","0","0.5","stim/N000.jpg","65","76","0.433333316","3","0","3","","3","2","3","3","3","2","3","4","1","3","1","1","5","6","1","5","5","1","7","2","4","4","1","4","5","5","1","5","6","5","1","1","3","1","3","3","2","2","4","3","3","3","4","4","4","1","4","2","3","2","4","1","4","4","2","4","3","4","4","3","2","agree","671.1000000014901","","","","","","","","<div style=""font-size:60px;"">?</div>","65","36","1","0.8"
"image-keyboard-response","106","419253","0.0-11.0-0.36","nx58ov4n9htpu4z","1","6110e27590848aeaee9fc49a","19","10/2001","In a relationship","English","N/A","Female","Asian","No","High School","Yes, Undergraduate studies","N/A","N/A","N/A","5","4","4","1","0","0.5","stim/N000.jpg","65","76","0.433333316","3","0","3","","3","2","3","3","3","2","3","4","1","3","1","1","5","6","1","5","5","1","7","2","4","4","1","4","5","5","1","5","6","5","1","1","3","1","3","3","2","2","4","3","3","3","4","4","4","1","4","2","3","2","4","1","4","4","2","4","3","4","4","3","2","agree","null","","","","","","","","stim/H250.jpg","null","","",""
"html-keyboard-response","107","419658","0.0-11.0-1.36","nx58ov4n9htpu4z","1","6110e27590848aeaee9fc49a","19","10/2001","In a relationship","English","N/A","Female","Asian","No","High School","Yes, Undergraduate studies","N/A","N/A","N/A","5","4","4","1","0","0.5","stim/N000.jpg","65","76","0.433333316","3","0","3","","3","2","3","3","3","2","3","4","1","3","1","1","5","6","1","5","5","1","7","2","4","4","1","4","5","5","1","5","6","5","1","1","3","1","3","3","2","2","4","3","3","3","4","4","4","1","4","2","3","2","4","1","4","4","2","4","3","4","4","3","2","agree","404.19999999925494","","","","","","","","<div style=""font-size:60px;"">?</div>","76","37","1","0.8"
"image-keyboard-response","108","420673","0.0-11.0-0.37","nx58ov4n9htpu4z","1","6110e27590848aeaee9fc49a","19","10/2001","In a relationship","English","N/A","Female","Asian","No","High School","Yes, Undergraduate studies","N/A","N/A","N/A","5","4","4","1","0","0.5","stim/N000.jpg","65","76","0.433333316","3","0","3","","3","2","3","3","3","2","3","4","1","3","1","1","5","6","1","5","5","1","7","2","4","4","1","4","5","5","1","5","6","5","1","1","3","1","3","3","2","2","4","3","3","3","4","4","4","1","4","2","3","2","4","1","4","4","2","4","3","4","4","3","2","agree","null","","","","","","","","stim/H050.jpg","null","","",""
"html-keyboard-response","109","421211","0.0-11.0-1.37","nx58ov4n9htpu4z","1","6110e27590848aeaee9fc49a","19","10/2001","In a relationship","English","N/A","Female","Asian","No","High School","Yes, Undergraduate studies","N/A","N/A","N/A","5","4","4","1","0","0.5","stim/N000.jpg","65","76","0.433333316","3","0","3","","3","2","3","3","3","2","3","4","1","3","1","1","5","6","1","5","5","1","7","2","4","4","1","4","5","5","1","5","6","5","1","1","3","1","3","3","2","2","4","3","3","3","4","4","4","1","4","2","3","2","4","1","4","4","2","4","3","4","4","3","2","agree","537.4000000022352","","","","","","","","<div style=""font-size:60px;"">?</div>","65","38","1","0.8"
"image-keyboard-response","110","422230","0.0-11.0-0.38","nx58ov4n9htpu4z","1","6110e27590848aeaee9fc49a","19","10/2001","In a relationship","English","N/A","Female","Asian","No","High School","Yes, Undergraduate studies","N/A","N/A","N/A","5","4","4","1","0","0.5","stim/N000.jpg","65","76","0.433333316","3","0","3","","3","2","3","3","3","2","3","4","1","3","1","1","5","6","1","5","5","1","7","2","4","4","1","4","5","5","1","5","6","5","1","1","3","1","3","3","2","2","4","3","3","3","4","4","4","1","4","2","3","2","4","1","4","4","2","4","3","4","4","3","2","agree","null","","","","","","","","stim/H020.jpg","null","","",""
"html-keyboard-response","111","422662","0.0-11.0-1.38","nx58ov4n9htpu4z","1","6110e27590848aeaee9fc49a","19","10/2001","In a relationship","English","N/A","Female","Asian","No","High School","Yes, Undergraduate studies","N/A","N/A","N/A","5","4","4","1","0","0.5","stim/N000.jpg","65","76","0.433333316","3","0","3","","3","2","3","3","3","2","3","4","1","3","1","1","5","6","1","5","5","1","7","2","4","4","1","4","5","5","1","5","6","5","1","1","3","1","3","3","2","2","4","3","3","3","4","4","4","1","4","2","3","2","4","1","4","4","2","4","3","4","4","3","2","agree","431.8999999985099","","","","","","","","<div style=""font-size:60px;"">?</div>","65","39","1","0.8"
"image-keyboard-response","112","423667","0.0-11.0-0.39","nx58ov4n9htpu4z","1","6110e27590848aeaee9fc49a","19","10/2001","In a relationship","English","N/A","Female","Asian","No","High School","Yes, Undergraduate studies","N/A","N/A","N/A","5","4","4","1","0","0.5","stim/N000.jpg","65","76","0.433333316","3","0","3","","3","2","3","3","3","2","3","4","1","3","1","1","5","6","1","5","5","1","7","2","4","4","1","4","5","5","1","5","6","5","1","1","3","1","3","3","2","2","4","3","3","3","4","4","4","1","4","2","3","2","4","1","4","4","2","4","3","4","4","3","2","agree","null","","","","","","","","stim/H280.jpg","null","","",""
"html-keyboard-response","113","424183","0.0-11.0-1.39","nx58ov4n9htpu4z","1","6110e27590848aeaee9fc49a","19","10/2001","In a relationship","English","N/A","Female","Asian","No","High School","Yes, Undergraduate studies","N/A","N/A","N/A","5","4","4","1","0","0.5","stim/N000.jpg","65","76","0.433333316","3","0","3","","3","2","3","3","3","2","3","4","1","3","1","1","5","6","1","5","5","1","7","2","4","4","1","4","5","5","1","5","6","5","1","1","3","1","3","3","2","2","4","3","3","3","4","4","4","1","4","2","3","2","4","1","4","4","2","4","3","4","4","3","2","agree","515.1999999992549","","","","","","","","<div style=""font-size:60px;"">?</div>","76","40","1","0.8"
"image-keyboard-response","114","425209","0.0-11.0-0.40","nx58ov4n9htpu4z","1","6110e27590848aeaee9fc49a","19","10/2001","In a relationship","English","N/A","Female","Asian","No","High School","Yes, Undergraduate studies","N/A","N/A","N/A","5","4","4","1","0","0.5","stim/N000.jpg","65","76","0.433333316","3","0","3","","3","2","3","3","3","2","3","4","1","3","1","1","5","6","1","5","5","1","7","2","4","4","1","4","5","5","1","5","6","5","1","1","3","1","3","3","2","2","4","3","3","3","4","4","4","1","4","2","3","2","4","1","4","4","2","4","3","4","4","3","2","agree","null","","","","","","","","stim/H130.jpg","null","","",""
"html-keyboard-response","115","426604","0.0-11.0-1.40","nx58ov4n9htpu4z","1","6110e27590848aeaee9fc49a","19","10/2001","In a relationship","English","N/A","Female","Asian","No","High School","Yes, Undergraduate studies","N/A","N/A","N/A","5","4","4","1","0","0.5","stim/N000.jpg","65","76","0.433333316","3","0","3","","3","2","3","3","3","2","3","4","1","3","1","1","5","6","1","5","5","1","7","2","4","4","1","4","5","5","1","5","6","5","1","1","3","1","3","3","2","2","4","3","3","3","4","4","4","1","4","2","3","2","4","1","4","4","2","4","3","4","4","3","2","agree","1394.1000000014901","","","","","","","","<div style=""font-size:60px;"">?</div>","76","41","1","0.8"
"image-keyboard-response","116","427615","0.0-11.0-0.41","nx58ov4n9htpu4z","1","6110e27590848aeaee9fc49a","19","10/2001","In a relationship","English","N/A","Female","Asian","No","High School","Yes, Undergraduate studies","N/A","N/A","N/A","5","4","4","1","0","0.5","stim/N000.jpg","65","76","0.433333316","3","0","3","","3","2","3","3","3","2","3","4","1","3","1","1","5","6","1","5","5","1","7","2","4","4","1","4","5","5","1","5","6","5","1","1","3","1","3","3","2","2","4","3","3","3","4","4","4","1","4","2","3","2","4","1","4","4","2","4","3","4","4","3","2","agree","null","","","","","","","","stim/H180.jpg","null","","",""
"html-keyboard-response","117","427628","0.0-11.0-1.41","nx58ov4n9htpu4z","1","6110e27590848aeaee9fc49a","19","10/2001","In a relationship","English","N/A","Female","Asian","No","High School","Yes, Undergraduate studies","N/A","N/A","N/A","5","4","4","1","0","0.5","stim/N000.jpg","65","76","0.433333316","3","0","3","","3","2","3","3","3","2","3","4","1","3","1","1","5","6","1","5","5","1","7","2","4","4","1","4","5","5","1","5","6","5","1","1","3","1","3","3","2","2","4","3","3","3","4","4","4","1","4","2","3","2","4","1","4","4","2","4","3","4","4","3","2","agree","12.099999997764826","","","","","","","","<div style=""font-size:60px;"">?</div>","76","42","1","0.8"
"image-keyboard-response","118","428641","0.0-11.0-0.42","nx58ov4n9htpu4z","1","6110e27590848aeaee9fc49a","19","10/2001","In a relationship","English","N/A","Female","Asian","No","High School","Yes, Undergraduate studies","N/A","N/A","N/A","5","4","4","1","0","0.5","stim/N000.jpg","65","76","0.433333316","3","0","3","","3","2","3","3","3","2","3","4","1","3","1","1","5","6","1","5","5","1","7","2","4","4","1","4","5","5","1","5","6","5","1","1","3","1","3","3","2","2","4","3","3","3","4","4","4","1","4","2","3","2","4","1","4","4","2","4","3","4","4","3","2","agree","null","","","","","","","","stim/H050.jpg","null","","",""
"html-keyboard-response","119","428948","0.0-11.0-1.42","nx58ov4n9htpu4z","1","6110e27590848aeaee9fc49a","19","10/2001","In a relationship","English","N/A","Female","Asian","No","High School","Yes, Undergraduate studies","N/A","N/A","N/A","5","4","4","1","0","0.5","stim/N000.jpg","65","76","0.433333316","3","0","3","","3","2","3","3","3","2","3","4","1","3","1","1","5","6","1","5","5","1","7","2","4","4","1","4","5","5","1","5","6","5","1","1","3","1","3","3","2","2","4","3","3","3","4","4","4","1","4","2","3","2","4","1","4","4","2","4","3","4","4","3","2","agree","306.19999999925494","","","","","","","","<div style=""font-size:60px;"">?</div>","65","43","1","0.8"
"image-keyboard-response","120","429965","0.0-11.0-0.43","nx58ov4n9htpu4z","1","6110e27590848aeaee9fc49a","19","10/2001","In a relationship","English","N/A","Female","Asian","No","High School","Yes, Undergraduate studies","N/A","N/A","N/A","5","4","4","1","0","0.5","stim/N000.jpg","65","76","0.433333316","3","0","3","","3","2","3","3","3","2","3","4","1","3","1","1","5","6","1","5","5","1","7","2","4","4","1","4","5","5","1","5","6","5","1","1","3","1","3","3","2","2","4","3","3","3","4","4","4","1","4","2","3","2","4","1","4","4","2","4","3","4","4","3","2","agree","null","","","","","","","","stim/T150.jpg","null","","",""
"html-keyboard-response","121","430134","0.0-11.0-1.43","nx58ov4n9htpu4z","1","6110e27590848aeaee9fc49a","19","10/2001","In a relationship","English","N/A","Female","Asian","No","High School","Yes, Undergraduate studies","N/A","N/A","N/A","5","4","4","1","0","0.5","stim/N000.jpg","65","76","0.433333316","3","0","3","","3","2","3","3","3","2","3","4","1","3","1","1","5","6","1","5","5","1","7","2","4","4","1","4","5","5","1","5","6","5","1","1","3","1","3","3","2","2","4","3","3","3","4","4","4","1","4","2","3","2","4","1","4","4","2","4","3","4","4","3","2","agree","168.5","","","","","","","","<div style=""font-size:60px;"">?</div>","65","44","1","0.8"
"image-keyboard-response","122","431152","0.0-11.0-0.44","nx58ov4n9htpu4z","1","6110e27590848aeaee9fc49a","19","10/2001","In a relationship","English","N/A","Female","Asian","No","High School","Yes, Undergraduate studies","N/A","N/A","N/A","5","4","4","1","0","0.5","stim/N000.jpg","65","76","0.433333316","3","0","3","","3","2","3","3","3","2","3","4","1","3","1","1","5","6","1","5","5","1","7","2","4","4","1","4","5","5","1","5","6","5","1","1","3","1","3","3","2","2","4","3","3","3","4","4","4","1","4","2","3","2","4","1","4","4","2","4","3","4","4","3","2","agree","null","","","","","","","","stim/H190.jpg","null","","",""
"html-keyboard-response","123","431493","0.0-11.0-1.44","nx58ov4n9htpu4z","1","6110e27590848aeaee9fc49a","19","10/2001","In a relationship","English","N/A","Female","Asian","No","High School","Yes, Undergraduate studies","N/A","N/A","N/A","5","4","4","1","0","0.5","stim/N000.jpg","65","76","0.433333316","3","0","3","","3","2","3","3","3","2","3","4","1","3","1","1","5","6","1","5","5","1","7","2","4","4","1","4","5","5","1","5","6","5","1","1","3","1","3","3","2","2","4","3","3","3","4","4","4","1","4","2","3","2","4","1","4","4","2","4","3","4","4","3","2","agree","340","","","","","","","","<div style=""font-size:60px;"">?</div>","76","45","1","0.8"
"image-keyboard-response","124","432509","0.0-11.0-0.45","nx58ov4n9htpu4z","1","6110e27590848aeaee9fc49a","19","10/2001","In a relationship","English","N/A","Female","Asian","No","High School","Yes, Undergraduate studies","N/A","N/A","N/A","5","4","4","1","0","0.5","stim/N000.jpg","65","76","0.433333316","3","0","3","","3","2","3","3","3","2","3","4","1","3","1","1","5","6","1","5","5","1","7","2","4","4","1","4","5","5","1","5","6","5","1","1","3","1","3","3","2","2","4","3","3","3","4","4","4","1","4","2","3","2","4","1","4","4","2","4","3","4","4","3","2","agree","null","","","","","","","","stim/T220.jpg","null","","",""
"html-keyboard-response","125","432793","0.0-11.0-1.45","nx58ov4n9htpu4z","1","6110e27590848aeaee9fc49a","19","10/2001","In a relationship","English","N/A","Female","Asian","No","High School","Yes, Undergraduate studies","N/A","N/A","N/A","5","4","4","1","0","0.5","stim/N000.jpg","65","76","0.433333316","3","0","3","","3","2","3","3","3","2","3","4","1","3","1","1","5","6","1","5","5","1","7","2","4","4","1","4","5","5","1","5","6","5","1","1","3","1","3","3","2","2","4","3","3","3","4","4","4","1","4","2","3","2","4","1","4","4","2","4","3","4","4","3","2","agree","283.1000000014901","","","","","","","","<div style=""font-size:60px;"">?</div>","65","46","1","0.8"
"image-keyboard-response","126","433815","0.0-11.0-0.46","nx58ov4n9htpu4z","1","6110e27590848aeaee9fc49a","19","10/2001","In a relationship","English","N/A","Female","Asian","No","High School","Yes, Undergraduate studies","N/A","N/A","N/A","5","4","4","1","0","0.5","stim/N000.jpg","65","76","0.433333316","3","0","3","","3","2","3","3","3","2","3","4","1","3","1","1","5","6","1","5","5","1","7","2","4","4","1","4","5","5","1","5","6","5","1","1","3","1","3","3","2","2","4","3","3","3","4","4","4","1","4","2","3","2","4","1","4","4","2","4","3","4","4","3","2","agree","null","","","","","","","","stim/H150.jpg","null","","",""
"html-keyboard-response","127","434551","0.0-11.0-1.46","nx58ov4n9htpu4z","1","6110e27590848aeaee9fc49a","19","10/2001","In a relationship","English","N/A","Female","Asian","No","High School","Yes, Undergraduate studies","N/A","N/A","N/A","5","4","4","1","0","0.5","stim/N000.jpg","65","76","0.433333316","3","0","3","","3","2","3","3","3","2","3","4","1","3","1","1","5","6","1","5","5","1","7","2","4","4","1","4","5","5","1","5","6","5","1","1","3","1","3","3","2","2","4","3","3","3","4","4","4","1","4","2","3","2","4","1","4","4","2","4","3","4","4","3","2","agree","735.3999999985099","","","","","","","","<div style=""font-size:60px;"">?</div>","65","47","1","0.8"
"image-keyboard-response","128","435576","0.0-11.0-0.47","nx58ov4n9htpu4z","1","6110e27590848aeaee9fc49a","19","10/2001","In a relationship","English","N/A","Female","Asian","No","High School","Yes, Undergraduate studies","N/A","N/A","N/A","5","4","4","1","0","0.5","stim/N000.jpg","65","76","0.433333316","3","0","3","","3","2","3","3","3","2","3","4","1","3","1","1","5","6","1","5","5","1","7","2","4","4","1","4","5","5","1","5","6","5","1","1","3","1","3","3","2","2","4","3","3","3","4","4","4","1","4","2","3","2","4","1","4","4","2","4","3","4","4","3","2","agree","null","","","","","","","","stim/H070.jpg","null","","",""
"html-keyboard-response","129","435794","0.0-11.0-1.47","nx58ov4n9htpu4z","1","6110e27590848aeaee9fc49a","19","10/2001","In a relationship","English","N/A","Female","Asian","No","High School","Yes, Undergraduate studies","N/A","N/A","N/A","5","4","4","1","0","0.5","stim/N000.jpg","65","76","0.433333316","3","0","3","","3","2","3","3","3","2","3","4","1","3","1","1","5","6","1","5","5","1","7","2","4","4","1","4","5","5","1","5","6","5","1","1","3","1","3","3","2","2","4","3","3","3","4","4","4","1","4","2","3","2","4","1","4","4","2","4","3","4","4","3","2","agree","216.59999999776483","","","","","","","","<div style=""font-size:60px;"">?</div>","65","48","1","0.8"
"image-keyboard-response","130","436810","0.0-11.0-0.48","nx58ov4n9htpu4z","1","6110e27590848aeaee9fc49a","19","10/2001","In a relationship","English","N/A","Female","Asian","No","High School","Yes, Undergraduate studies","N/A","N/A","N/A","5","4","4","1","0","0.5","stim/N000.jpg","65","76","0.433333316","3","0","3","","3","2","3","3","3","2","3","4","1","3","1","1","5","6","1","5","5","1","7","2","4","4","1","4","5","5","1","5","6","5","1","1","3","1","3","3","2","2","4","3","3","3","4","4","4","1","4","2","3","2","4","1","4","4","2","4","3","4","4","3","2","agree","null","","","","","","","","stim/H200.jpg","null","","",""
"html-keyboard-response","131","436995","0.0-11.0-1.48","nx58ov4n9htpu4z","1","6110e27590848aeaee9fc49a","19","10/2001","In a relationship","English","N/A","Female","Asian","No","High School","Yes, Undergraduate studies","N/A","N/A","N/A","5","4","4","1","0","0.5","stim/N000.jpg","65","76","0.433333316","3","0","3","","3","2","3","3","3","2","3","4","1","3","1","1","5","6","1","5","5","1","7","2","4","4","1","4","5","5","1","5","6","5","1","1","3","1","3","3","2","2","4","3","3","3","4","4","4","1","4","2","3","2","4","1","4","4","2","4","3","4","4","3","2","agree","184.89999999850988","","","","","","","","<div style=""font-size:60px;"">?</div>","76","49","1","0.8"
"image-keyboard-response","132","438023","0.0-11.0-0.49","nx58ov4n9htpu4z","1","6110e27590848aeaee9fc49a","19","10/2001","In a relationship","English","N/A","Female","Asian","No","High School","Yes, Undergraduate studies","N/A","N/A","N/A","5","4","4","1","0","0.5","stim/N000.jpg","65","76","0.433333316","3","0","3","","3","2","3","3","3","2","3","4","1","3","1","1","5","6","1","5","5","1","7","2","4","4","1","4","5","5","1","5","6","5","1","1","3","1","3","3","2","2","4","3","3","3","4","4","4","1","4","2","3","2","4","1","4","4","2","4","3","4","4","3","2","agree","null","","","","","","","","stim/T170.jpg","null","","",""
"html-keyboard-response","133","438118","0.0-11.0-1.49","nx58ov4n9htpu4z","1","6110e27590848aeaee9fc49a","19","10/2001","In a relationship","English","N/A","Female","Asian","No","High School","Yes, Undergraduate studies","N/A","N/A","N/A","5","4","4","1","0","0.5","stim/N000.jpg","65","76","0.433333316","3","0","3","","3","2","3","3","3","2","3","4","1","3","1","1","5","6","1","5","5","1","7","2","4","4","1","4","5","5","1","5","6","5","1","1","3","1","3","3","2","2","4","3","3","3","4","4","4","1","4","2","3","2","4","1","4","4","2","4","3","4","4","3","2","agree","94.29999999701977","","","","","","","","<div style=""font-size:60px;"">?</div>","65","50","1","0.8"
"html-keyboard-response","134","440263","0.0-12.0","nx58ov4n9htpu4z","1","6110e27590848aeaee9fc49a","19","10/2001","In a relationship","English","N/A","Female","Asian","No","High School","Yes, Undergraduate studies","N/A","N/A","N/A","5","4","4","1","0","0.5","stim/N000.jpg","65","76","0.433333316","3","0","3","","3","2","3","3","3","2","3","4","1","3","1","1","5","6","1","5","5","1","7","2","4","4","1","4","5","5","1","5","6","5","1","1","3","1","3","3","2","2","4","3","3","3","4","4","4","1","4","2","3","2","4","1","4","4","2","4","3","4","4","3","2","agree","1634.300000000745","","","","","","","","<p>Block 2</p><p>Press SPACE to continue.</p>","32","","",""
"image-keyboard-response","135","441780","0.0-13.0-0.0","nx58ov4n9htpu4z","1","6110e27590848aeaee9fc49a","19","10/2001","In a relationship","English","N/A","Female","Asian","No","High School","Yes, Undergraduate studies","N/A","N/A","N/A","5","4","4","1","0","0.5","stim/N000.jpg","65","76","0.433333316","3","0","3","","3","2","3","3","3","2","3","4","1","3","1","1","5","6","1","5","5","1","7","2","4","4","1","4","5","5","1","5","6","5","1","1","3","1","3","3","2","2","4","3","3","3","4","4","4","1","4","2","3","2","4","1","4","4","2","4","3","4","4","3","2","agree","null","","","","","","","","stim/H210.jpg","null","","",""
"html-keyboard-response","136","442116","0.0-13.0-1.0","nx58ov4n9htpu4z","1","6110e27590848aeaee9fc49a","19","10/2001","In a relationship","English","N/A","Female","Asian","No","High School","Yes, Undergraduate studies","N/A","N/A","N/A","5","4","4","1","0","0.5","stim/N000.jpg","65","76","0.433333316","3","0","3","","3","2","3","3","3","2","3","4","1","3","1","1","5","6","1","5","5","1","7","2","4","4","1","4","5","5","1","5","6","5","1","1","3","1","3","3","2","2","4","3","3","3","4","4","4","1","4","2","3","2","4","1","4","4","2","4","3","4","4","3","2","agree","335.30000000074506","","","","","","","","<div style=""font-size:60px;"">?</div>","76","1","2","0.8"
"image-keyboard-response","137","443131","0.0-13.0-0.1","nx58ov4n9htpu4z","1","6110e27590848aeaee9fc49a","19","10/2001","In a relationship","English","N/A","Female","Asian","No","High School","Yes, Undergraduate studies","N/A","N/A","N/A","5","4","4","1","0","0.5","stim/N000.jpg","65","76","0.433333316","3","0","3","","3","2","3","3","3","2","3","4","1","3","1","1","5","6","1","5","5","1","7","2","4","4","1","4","5","5","1","5","6","5","1","1","3","1","3","3","2","2","4","3","3","3","4","4","4","1","4","2","3","2","4","1","4","4","2","4","3","4","4","3","2","agree","null","","","","","","","","stim/H250.jpg","null","","",""
"html-keyboard-response","138","443373","0.0-13.0-1.1","nx58ov4n9htpu4z","1","6110e27590848aeaee9fc49a","19","10/2001","In a relationship","English","N/A","Female","Asian","No","High School","Yes, Undergraduate studies","N/A","N/A","N/A","5","4","4","1","0","0.5","stim/N000.jpg","65","76","0.433333316","3","0","3","","3","2","3","3","3","2","3","4","1","3","1","1","5","6","1","5","5","1","7","2","4","4","1","4","5","5","1","5","6","5","1","1","3","1","3","3","2","2","4","3","3","3","4","4","4","1","4","2","3","2","4","1","4","4","2","4","3","4","4","3","2","agree","240.5","","","","","","","","<div style=""font-size:60px;"">?</div>","76","2","2","0.8"
"image-keyboard-response","139","444375","0.0-13.0-0.2","nx58ov4n9htpu4z","1","6110e27590848aeaee9fc49a","19","10/2001","In a relationship","English","N/A","Female","Asian","No","High School","Yes, Undergraduate studies","N/A","N/A","N/A","5","4","4","1","0","0.5","stim/N000.jpg","65","76","0.433333316","3","0","3","","3","2","3","3","3","2","3","4","1","3","1","1","5","6","1","5","5","1","7","2","4","4","1","4","5","5","1","5","6","5","1","1","3","1","3","3","2","2","4","3","3","3","4","4","4","1","4","2","3","2","4","1","4","4","2","4","3","4","4","3","2","agree","null","","","","","","","","stim/H020.jpg","null","","",""
"html-keyboard-response","140","444563","0.0-13.0-1.2","nx58ov4n9htpu4z","1","6110e27590848aeaee9fc49a","19","10/2001","In a relationship","English","N/A","Female","Asian","No","High School","Yes, Undergraduate studies","N/A","N/A","N/A","5","4","4","1","0","0.5","stim/N000.jpg","65","76","0.433333316","3","0","3","","3","2","3","3","3","2","3","4","1","3","1","1","5","6","1","5","5","1","7","2","4","4","1","4","5","5","1","5","6","5","1","1","3","1","3","3","2","2","4","3","3","3","4","4","4","1","4","2","3","2","4","1","4","4","2","4","3","4","4","3","2","agree","186.69999999925494","","","","","","","","<div style=""font-size:60px;"">?</div>","65","3","2","0.8"
"image-keyboard-response","141","445580","0.0-13.0-0.3","nx58ov4n9htpu4z","1","6110e27590848aeaee9fc49a","19","10/2001","In a relationship","English","N/A","Female","Asian","No","High School","Yes, Undergraduate studies","N/A","N/A","N/A","5","4","4","1","0","0.5","stim/N000.jpg","65","76","0.433333316","3","0","3","","3","2","3","3","3","2","3","4","1","3","1","1","5","6","1","5","5","1","7","2","4","4","1","4","5","5","1","5","6","5","1","1","3","1","3","3","2","2","4","3","3","3","4","4","4","1","4","2","3","2","4","1","4","4","2","4","3","4","4","3","2","agree","null","","","","","","","","stim/H180.jpg","null","","",""
"html-keyboard-response","142","445594","0.0-13.0-1.3","nx58ov4n9htpu4z","1","6110e27590848aeaee9fc49a","19","10/2001","In a relationship","English","N/A","Female","Asian","No","High School","Yes, Undergraduate studies","N/A","N/A","N/A","5","4","4","1","0","0.5","stim/N000.jpg","65","76","0.433333316","3","0","3","","3","2","3","3","3","2","3","4","1","3","1","1","5","6","1","5","5","1","7","2","4","4","1","4","5","5","1","5","6","5","1","1","3","1","3","3","2","2","4","3","3","3","4","4","4","1","4","2","3","2","4","1","4","4","2","4","3","4","4","3","2","agree","13.100000001490116","","","","","","","","<div style=""font-size:60px;"">?</div>","65","4","2","0.8"
"image-keyboard-response","143","446610","0.0-13.0-0.4","nx58ov4n9htpu4z","1","6110e27590848aeaee9fc49a","19","10/2001","In a relationship","English","N/A","Female","Asian","No","High School","Yes, Undergraduate studies","N/A","N/A","N/A","5","4","4","1","0","0.5","stim/N000.jpg","65","76","0.433333316","3","0","3","","3","2","3","3","3","2","3","4","1","3","1","1","5","6","1","5","5","1","7","2","4","4","1","4","5","5","1","5","6","5","1","1","3","1","3","3","2","2","4","3","3","3","4","4","4","1","4","2","3","2","4","1","4","4","2","4","3","4","4","3","2","agree","null","","","","","","","","stim/H270.jpg","null","","",""
"html-keyboard-response","144","447027","0.0-13.0-1.4","nx58ov4n9htpu4z","1","6110e27590848aeaee9fc49a","19","10/2001","In a relationship","English","N/A","Female","Asian","No","High School","Yes, Undergraduate studies","N/A","N/A","N/A","5","4","4","1","0","0.5","stim/N000.jpg","65","76","0.433333316","3","0","3","","3","2","3","3","3","2","3","4","1","3","1","1","5","6","1","5","5","1","7","2","4","4","1","4","5","5","1","5","6","5","1","1","3","1","3","3","2","2","4","3","3","3","4","4","4","1","4","2","3","2","4","1","4","4","2","4","3","4","4","3","2","agree","416.30000000074506","","","","","","","","<div style=""font-size:60px;"">?</div>","76","5","2","0.8"
"image-keyboard-response","145","448041","0.0-13.0-0.5","nx58ov4n9htpu4z","1","6110e27590848aeaee9fc49a","19","10/2001","In a relationship","English","N/A","Female","Asian","No","High School","Yes, Undergraduate studies","N/A","N/A","N/A","5","4","4","1","0","0.5","stim/N000.jpg","65","76","0.433333316","3","0","3","","3","2","3","3","3","2","3","4","1","3","1","1","5","6","1","5","5","1","7","2","4","4","1","4","5","5","1","5","6","5","1","1","3","1","3","3","2","2","4","3","3","3","4","4","4","1","4","2","3","2","4","1","4","4","2","4","3","4","4","3","2","agree","null","","","","","","","","stim/H060.jpg","null","","",""
"html-keyboard-response","146","448190","0.0-13.0-1.5","nx58ov4n9htpu4z","1","6110e27590848aeaee9fc49a","19","10/2001","In a relationship","English","N/A","Female","Asian","No","High School","Yes, Undergraduate studies","N/A","N/A","N/A","5","4","4","1","0","0.5","stim/N000.jpg","65","76","0.433333316","3","0","3","","3","2","3","3","3","2","3","4","1","3","1","1","5","6","1","5","5","1","7","2","4","4","1","4","5","5","1","5","6","5","1","1","3","1","3","3","2","2","4","3","3","3","4","4","4","1","4","2","3","2","4","1","4","4","2","4","3","4","4","3","2","agree","148.39999999850988","","","","","","","","<div style=""font-size:60px;"">?</div>","65","6","2","0.8"
"image-keyboard-response","147","449202","0.0-13.0-0.6","nx58ov4n9htpu4z","1","6110e27590848aeaee9fc49a","19","10/2001","In a relationship","English","N/A","Female","Asian","No","High School","Yes, Undergraduate studies","N/A","N/A","N/A","5","4","4","1","0","0.5","stim/N000.jpg","65","76","0.433333316","3","0","3","","3","2","3","3","3","2","3","4","1","3","1","1","5","6","1","5","5","1","7","2","4","4","1","4","5","5","1","5","6","5","1","1","3","1","3","3","2","2","4","3","3","3","4","4","4","1","4","2","3","2","4","1","4","4","2","4","3","4","4","3","2","agree","null","","","","","","","","stim/H260.jpg","null","","",""
"html-keyboard-response","148","449436","0.0-13.0-1.6","nx58ov4n9htpu4z","1","6110e27590848aeaee9fc49a","19","10/2001","In a relationship","English","N/A","Female","Asian","No","High School","Yes, Undergraduate studies","N/A","N/A","N/A","5","4","4","1","0","0.5","stim/N000.jpg","65","76","0.433333316","3","0","3","","3","2","3","3","3","2","3","4","1","3","1","1","5","6","1","5","5","1","7","2","4","4","1","4","5","5","1","5","6","5","1","1","3","1","3","3","2","2","4","3","3","3","4","4","4","1","4","2","3","2","4","1","4","4","2","4","3","4","4","3","2","agree","232.19999999925494","","","","","","","","<div style=""font-size:60px;"">?</div>","76","7","2","0.8"
"image-keyboard-response","149","450462","0.0-13.0-0.7","nx58ov4n9htpu4z","1","6110e27590848aeaee9fc49a","19","10/2001","In a relationship","English","N/A","Female","Asian","No","High School","Yes, Undergraduate studies","N/A","N/A","N/A","5","4","4","1","0","0.5","stim/N000.jpg","65","76","0.433333316","3","0","3","","3","2","3","3","3","2","3","4","1","3","1","1","5","6","1","5","5","1","7","2","4","4","1","4","5","5","1","5","6","5","1","1","3","1","3","3","2","2","4","3","3","3","4","4","4","1","4","2","3","2","4","1","4","4","2","4","3","4","4","3","2","agree","null","","","","","","","","stim/H130.jpg","null","","",""
