"trial_type","trial_index","time_elapsed","internal_node_id","subject","condition","ID","age","dob","marital","natlang","olang","gender","ethnicity","mental_check","educ_l","educ_c","mental","mentdrug","mentpos","sesparent","sesstudent","sesladder","educ_hs","educ_ce","s1self","chosenbody","s1selfjudge","s2selfjudge","s2self","sspc_01","sspc_02","pas_01","pas_02","pas_03","pas_04","pas_05","pas_06","pas_07","pas_08","pas_09","pas_10","pas_11","pas_12","pas_13","pas_14","contact_01","contact_02","contact_03","contact_04","contact_05","contact_06","contact_07","contact_08","contact_09","idnd_01","idnd_02","idnd_03","idnd_04","idnd_05","idnd_06","idnd_07","idnd_08","catch_01","adig_01","adig_02","adig_03","plcs_01","plcs_02","plcs_03","plcs_04","plcs_05","plcs_06","plcs_07","plcs_08","plcs_09","plcs_10","plcs_11","plcs_12","catch_02","wwwp_01","wwwp_02","wwwp_03","wwwp_04","wwwp_05","wwwp_06","wwwp_07","wwwp_08","wwwp_09","lsns_fam_1","lsns_fam_2","lsns_fam_3","lsns_fri_1","lsns_fri_2","lsns_fri_3","debrief","rt","url","success","view_history","responses","question_order","final_value","start_value","stimulus","key_press","trial","block","freq"
"pavlovia","0","10","0.0-0.0","9az90mt668upazr","1","60bec50b7af1ca8be684127b","22","04/1999","Single","English","Cantonese","Male","Asian","No","Undergraduate degree","Yes, Undergraduate studies","N/A","N/A","N/A","3","0","4","1","3","0.8833333179999999","stim/H230.jpg","76","76","0.6000000160000001","3","2","3","","3","1","3","2","2","3","3","4","1","2","0","4","4","5","1","5","5","1","5","2","3","4","0","4","5","3","1","5","5","5","1","1","1","2","3","3","3","3","4","4","4","3","3","3","2","1","4","4","3","4","1","4","5","4","3","1","0","0","2","1","1","agree","","","","","","","","","","","","",""
"external-html","1","5555","0.0-1.0","9az90mt668upazr","1","60bec50b7af1ca8be684127b","22","04/1999","Single","English","Cantonese","Male","Asian","No","Undergraduate degree","Yes, Undergraduate studies","N/A","N/A","N/A","3","0","4","1","3","0.8833333179999999","stim/H230.jpg","76","76","0.6000000160000001","3","2","3","","3","1","3","2","2","3","3","4","1","2","0","4","4","5","1","5","5","1","5","2","3","4","0","4","5","3","1","5","5","5","1","1","1","2","3","3","3","3","4","4","4","3","3","3","2","1","4","4","3","4","1","4","5","4","3","1","0","0","2","1","1","agree","5402","sub/html/consent.html","","","","","","","","","","",""
"fullscreen","2","35352","0.0-2.0","9az90mt668upazr","1","60bec50b7af1ca8be684127b","22","04/1999","Single","English","Cantonese","Male","Asian","No","Undergraduate degree","Yes, Undergraduate studies","N/A","N/A","N/A","3","0","4","1","3","0.8833333179999999","stim/H230.jpg","76","76","0.6000000160000001","3","2","3","","3","1","3","2","2","3","3","4","1","2","0","4","4","5","1","5","5","1","5","2","3","4","0","4","5","3","1","5","5","5","1","1","1","2","3","3","3","3","4","4","4","3","3","3","2","1","4","4","3","4","1","4","5","4","3","1","0","0","2","1","1","agree","","","true","","","","","","","","","",""
"instructions","3","41361","0.0-3.0","9az90mt668upazr","1","60bec50b7af1ca8be684127b","22","04/1999","Single","English","Cantonese","Male","Asian","No","Undergraduate degree","Yes, Undergraduate studies","N/A","N/A","N/A","3","0","4","1","3","0.8833333179999999","stim/H230.jpg","76","76","0.6000000160000001","3","2","3","","3","1","3","2","2","3","3","4","1","2","0","4","4","5","1","5","5","1","5","2","3","4","0","4","5","3","1","5","5","5","1","1","1","2","3","3","3","3","4","4","4","3","3","3","2","1","4","4","3","4","1","4","5","4","3","1","0","0","2","1","1","agree","6007","","","[{""page_index"":0,""viewing_time"":2571},{""page_index"":1,""viewing_time"":3436}]","","","","","","","","",""
"survey-text","4","69540","0.0-4.0-0.0","9az90mt668upazr","1","60bec50b7af1ca8be684127b","22","04/1999","Single","English","Cantonese","Male","Asian","No","Undergraduate degree","Yes, Undergraduate studies","N/A","N/A","N/A","3","0","4","1","3","0.8833333179999999","stim/H230.jpg","76","76","0.6000000160000001","3","2","3","","3","1","3","2","2","3","3","4","1","2","0","4","4","5","1","5","5","1","5","2","3","4","0","4","5","3","1","5","5","5","1","1","1","2","3","3","3","3","4","4","4","3","3","3","2","1","4","4","3","4","1","4","5","4","3","1","0","0","2","1","1","agree","28165","","","","{""ID"":""60bec50b7af1ca8be684127b"",""age"":""22"",""dob"":""04/1999"",""marital"":""Single"",""natlang"":""English"",""olang"":""Cantonese""}","","","","","","","",""
"survey-multi-choice","5","89019","0.0-4.0-1.0","9az90mt668upazr","1","60bec50b7af1ca8be684127b","22","04/1999","Single","English","Cantonese","Male","Asian","No","Undergraduate degree","Yes, Undergraduate studies","N/A","N/A","N/A","3","0","4","1","3","0.8833333179999999","stim/H230.jpg","76","76","0.6000000160000001","3","2","3","","3","1","3","2","2","3","3","4","1","2","0","4","4","5","1","5","5","1","5","2","3","4","0","4","5","3","1","5","5","5","1","1","1","2","3","3","3","3","4","4","4","3","3","3","2","1","4","4","3","4","1","4","5","4","3","1","0","0","2","1","1","agree","19475","","","","{""gender"":""Male"",""ethnicity"":""Asian"",""mental_check"":""No"",""educ_l"":""Undergraduate degree"",""educ_c"":""Yes, Undergraduate studies""}","[0,1,2,3,4]","","","","","","",""
"survey-text","6","101077","0.0-4.0-2.0","9az90mt668upazr","1","60bec50b7af1ca8be684127b","22","04/1999","Single","English","Cantonese","Male","Asian","No","Undergraduate degree","Yes, Undergraduate studies","N/A","N/A","N/A","3","0","4","1","3","0.8833333179999999","stim/H230.jpg","76","76","0.6000000160000001","3","2","3","","3","1","3","2","2","3","3","4","1","2","0","4","4","5","1","5","5","1","5","2","3","4","0","4","5","3","1","5","5","5","1","1","1","2","3","3","3","3","4","4","4","3","3","3","2","1","4","4","3","4","1","4","5","4","3","1","0","0","2","1","1","agree","12052","","","","{""mental"":""N/A"",""mentdrug"":""N/A"",""mentpos"":""N/A""}","","","","","","","",""
"survey-likert","7","135587","0.0-4.0-3.0","9az90mt668upazr","1","60bec50b7af1ca8be684127b","22","04/1999","Single","English","Cantonese","Male","Asian","No","Undergraduate degree","Yes, Undergraduate studies","N/A","N/A","N/A","3","0","4","1","3","0.8833333179999999","stim/H230.jpg","76","76","0.6000000160000001","3","2","3","","3","1","3","2","2","3","3","4","1","2","0","4","4","5","1","5","5","1","5","2","3","4","0","4","5","3","1","5","5","5","1","1","1","2","3","3","3","3","4","4","4","3","3","3","2","1","4","4","3","4","1","4","5","4","3","1","0","0","2","1","1","agree","34506","","","","{""sesparent"":3,""sesstudent"":0,""sesladder"":4}","[0,1,2]","","","","","","",""
"survey-likert","8","155619","0.0-4.0-4.0","9az90mt668upazr","1","60bec50b7af1ca8be684127b","22","04/1999","Single","English","Cantonese","Male","Asian","No","Undergraduate degree","Yes, Undergraduate studies","N/A","N/A","N/A","3","0","4","1","3","0.8833333179999999","stim/H230.jpg","76","76","0.6000000160000001","3","2","3","","3","1","3","2","2","3","3","4","1","2","0","4","4","5","1","5","5","1","5","2","3","4","0","4","5","3","1","5","5","5","1","1","1","2","3","3","3","3","4","4","4","3","3","3","2","1","4","4","3","4","1","4","5","4","3","1","0","0","2","1","1","agree","20029","","","","{""educ_hs"":2,""educ_ce"":13}","[0,1]","","","","","","",""
"reconstruction","9","176123","0.0-5.0","9az90mt668upazr","1","60bec50b7af1ca8be684127b","22","04/1999","Single","English","Cantonese","Male","Asian","No","Undergraduate degree","Yes, Undergraduate studies","N/A","N/A","N/A","3","0","4","1","3","0.8833333179999999","stim/H230.jpg","76","76","0.6000000160000001","3","2","3","","3","1","3","2","2","3","3","4","1","2","0","4","4","5","1","5","5","1","5","2","3","4","0","4","5","3","1","5","5","5","1","1","1","2","3","3","3","3","4","4","4","3","3","3","2","1","4","4","3","4","1","4","5","4","3","1","0","0","2","1","1","agree","20501","","","","","","0.8833333179999999","0.5","","","","",""
"image-keyboard-response","10","181963","0.0-6.0","9az90mt668upazr","1","60bec50b7af1ca8be684127b","22","04/1999","Single","English","Cantonese","Male","Asian","No","Undergraduate degree","Yes, Undergraduate studies","N/A","N/A","N/A","3","0","4","1","3","0.8833333179999999","stim/H230.jpg","76","76","0.6000000160000001","3","2","3","","3","1","3","2","2","3","3","4","1","2","0","4","4","5","1","5","5","1","5","2","3","4","0","4","5","3","1","5","5","5","1","1","1","2","3","3","3","3","4","4","4","3","3","3","2","1","4","4","3","4","1","4","5","4","3","1","0","0","2","1","1","agree","5838","","","","","","","","stim/H230.jpg","76","","",""
"instructions","11","216287","0.0-7.0","9az90mt668upazr","1","60bec50b7af1ca8be684127b","22","04/1999","Single","English","Cantonese","Male","Asian","No","Undergraduate degree","Yes, Undergraduate studies","N/A","N/A","N/A","3","0","4","1","3","0.8833333179999999","stim/H230.jpg","76","76","0.6000000160000001","3","2","3","","3","1","3","2","2","3","3","4","1","2","0","4","4","5","1","5","5","1","5","2","3","4","0","4","5","3","1","5","5","5","1","1","1","2","3","3","3","3","4","4","4","3","3","3","2","1","4","4","3","4","1","4","5","4","3","1","0","0","2","1","1","agree","34325","","","[{""page_index"":0,""viewing_time"":2246},{""page_index"":1,""viewing_time"":7433},{""page_index"":2,""viewing_time"":4461},{""page_index"":3,""viewing_time"":3166},{""page_index"":4,""viewing_time"":5145},{""page_index"":5,""viewing_time"":10366},{""page_index"":6,""viewing_time"":1508}]","","","","","","","","",""
"image-keyboard-response","12","216804","0.0-8.0-0.0","9az90mt668upazr","1","60bec50b7af1ca8be684127b","22","04/1999","Single","English","Cantonese","Male","Asian","No","Undergraduate degree","Yes, Undergraduate studies","N/A","N/A","N/A","3","0","4","1","3","0.8833333179999999","stim/H230.jpg","76","76","0.6000000160000001","3","2","3","","3","1","3","2","2","3","3","4","1","2","0","4","4","5","1","5","5","1","5","2","3","4","0","4","5","3","1","5","5","5","1","1","1","2","3","3","3","3","4","4","4","3","3","3","2","1","4","4","3","4","1","4","5","4","3","1","0","0","2","1","1","agree","null","","","","","","","","stim/T220.jpg","null","","",""
"html-keyboard-response","13","217966","0.0-8.0-1.0","9az90mt668upazr","1","60bec50b7af1ca8be684127b","22","04/1999","Single","English","Cantonese","Male","Asian","No","Undergraduate degree","Yes, Undergraduate studies","N/A","N/A","N/A","3","0","4","1","3","0.8833333179999999","stim/H230.jpg","76","76","0.6000000160000001","3","2","3","","3","1","3","2","2","3","3","4","1","2","0","4","4","5","1","5","5","1","5","2","3","4","0","4","5","3","1","5","5","5","1","1","1","2","3","3","3","3","4","4","4","3","3","3","2","1","4","4","3","4","1","4","5","4","3","1","0","0","2","1","1","agree","1160","","","","","","","","<div style=""font-size:60px;"">?</div>","65","1","Practice","0.5"
"image-keyboard-response","14","218980","0.0-8.0-0.1","9az90mt668upazr","1","60bec50b7af1ca8be684127b","22","04/1999","Single","English","Cantonese","Male","Asian","No","Undergraduate degree","Yes, Undergraduate studies","N/A","N/A","N/A","3","0","4","1","3","0.8833333179999999","stim/H230.jpg","76","76","0.6000000160000001","3","2","3","","3","1","3","2","2","3","3","4","1","2","0","4","4","5","1","5","5","1","5","2","3","4","0","4","5","3","1","5","5","5","1","1","1","2","3","3","3","3","4","4","4","3","3","3","2","1","4","4","3","4","1","4","5","4","3","1","0","0","2","1","1","agree","null","","","","","","","","stim/T100.jpg","null","","",""
"html-keyboard-response","15","219951","0.0-8.0-1.1","9az90mt668upazr","1","60bec50b7af1ca8be684127b","22","04/1999","Single","English","Cantonese","Male","Asian","No","Undergraduate degree","Yes, Undergraduate studies","N/A","N/A","N/A","3","0","4","1","3","0.8833333179999999","stim/H230.jpg","76","76","0.6000000160000001","3","2","3","","3","1","3","2","2","3","3","4","1","2","0","4","4","5","1","5","5","1","5","2","3","4","0","4","5","3","1","5","5","5","1","1","1","2","3","3","3","3","4","4","4","3","3","3","2","1","4","4","3","4","1","4","5","4","3","1","0","0","2","1","1","agree","970","","","","","","","","<div style=""font-size:60px;"">?</div>","65","2","Practice","0.5"
"image-keyboard-response","16","220978","0.0-8.0-0.2","9az90mt668upazr","1","60bec50b7af1ca8be684127b","22","04/1999","Single","English","Cantonese","Male","Asian","No","Undergraduate degree","Yes, Undergraduate studies","N/A","N/A","N/A","3","0","4","1","3","0.8833333179999999","stim/H230.jpg","76","76","0.6000000160000001","3","2","3","","3","1","3","2","2","3","3","4","1","2","0","4","4","5","1","5","5","1","5","2","3","4","0","4","5","3","1","5","5","5","1","1","1","2","3","3","3","3","4","4","4","3","3","3","2","1","4","4","3","4","1","4","5","4","3","1","0","0","2","1","1","agree","null","","","","","","","","stim/T100.jpg","null","","",""
"html-keyboard-response","17","221602","0.0-8.0-1.2","9az90mt668upazr","1","60bec50b7af1ca8be684127b","22","04/1999","Single","English","Cantonese","Male","Asian","No","Undergraduate degree","Yes, Undergraduate studies","N/A","N/A","N/A","3","0","4","1","3","0.8833333179999999","stim/H230.jpg","76","76","0.6000000160000001","3","2","3","","3","1","3","2","2","3","3","4","1","2","0","4","4","5","1","5","5","1","5","2","3","4","0","4","5","3","1","5","5","5","1","1","1","2","3","3","3","3","4","4","4","3","3","3","2","1","4","4","3","4","1","4","5","4","3","1","0","0","2","1","1","agree","623","","","","","","","","<div style=""font-size:60px;"">?</div>","65","3","Practice","0.5"
"image-keyboard-response","18","222619","0.0-8.0-0.3","9az90mt668upazr","1","60bec50b7af1ca8be684127b","22","04/1999","Single","English","Cantonese","Male","Asian","No","Undergraduate degree","Yes, Undergraduate studies","N/A","N/A","N/A","3","0","4","1","3","0.8833333179999999","stim/H230.jpg","76","76","0.6000000160000001","3","2","3","","3","1","3","2","2","3","3","4","1","2","0","4","4","5","1","5","5","1","5","2","3","4","0","4","5","3","1","5","5","5","1","1","1","2","3","3","3","3","4","4","4","3","3","3","2","1","4","4","3","4","1","4","5","4","3","1","0","0","2","1","1","agree","null","","","","","","","","stim/T060.jpg","null","","",""
"html-keyboard-response","19","223728","0.0-8.0-1.3","9az90mt668upazr","1","60bec50b7af1ca8be684127b","22","04/1999","Single","English","Cantonese","Male","Asian","No","Undergraduate degree","Yes, Undergraduate studies","N/A","N/A","N/A","3","0","4","1","3","0.8833333179999999","stim/H230.jpg","76","76","0.6000000160000001","3","2","3","","3","1","3","2","2","3","3","4","1","2","0","4","4","5","1","5","5","1","5","2","3","4","0","4","5","3","1","5","5","5","1","1","1","2","3","3","3","3","4","4","4","3","3","3","2","1","4","4","3","4","1","4","5","4","3","1","0","0","2","1","1","agree","1109","","","","","","","","<div style=""font-size:60px;"">?</div>","65","4","Practice","0.5"
"image-keyboard-response","20","224746","0.0-8.0-0.4","9az90mt668upazr","1","60bec50b7af1ca8be684127b","22","04/1999","Single","English","Cantonese","Male","Asian","No","Undergraduate degree","Yes, Undergraduate studies","N/A","N/A","N/A","3","0","4","1","3","0.8833333179999999","stim/H230.jpg","76","76","0.6000000160000001","3","2","3","","3","1","3","2","2","3","3","4","1","2","0","4","4","5","1","5","5","1","5","2","3","4","0","4","5","3","1","5","5","5","1","1","1","2","3","3","3","3","4","4","4","3","3","3","2","1","4","4","3","4","1","4","5","4","3","1","0","0","2","1","1","agree","null","","","","","","","","stim/H200.jpg","null","","",""
"html-keyboard-response","21","225377","0.0-8.0-1.4","9az90mt668upazr","1","60bec50b7af1ca8be684127b","22","04/1999","Single","English","Cantonese","Male","Asian","No","Undergraduate degree","Yes, Undergraduate studies","N/A","N/A","N/A","3","0","4","1","3","0.8833333179999999","stim/H230.jpg","76","76","0.6000000160000001","3","2","3","","3","1","3","2","2","3","3","4","1","2","0","4","4","5","1","5","5","1","5","2","3","4","0","4","5","3","1","5","5","5","1","1","1","2","3","3","3","3","4","4","4","3","3","3","2","1","4","4","3","4","1","4","5","4","3","1","0","0","2","1","1","agree","629","","","","","","","","<div style=""font-size:60px;"">?</div>","76","5","Practice","0.5"
"image-keyboard-response","22","226391","0.0-8.0-0.5","9az90mt668upazr","1","60bec50b7af1ca8be684127b","22","04/1999","Single","English","Cantonese","Male","Asian","No","Undergraduate degree","Yes, Undergraduate studies","N/A","N/A","N/A","3","0","4","1","3","0.8833333179999999","stim/H230.jpg","76","76","0.6000000160000001","3","2","3","","3","1","3","2","2","3","3","4","1","2","0","4","4","5","1","5","5","1","5","2","3","4","0","4","5","3","1","5","5","5","1","1","1","2","3","3","3","3","4","4","4","3","3","3","2","1","4","4","3","4","1","4","5","4","3","1","0","0","2","1","1","agree","null","","","","","","","","stim/T190.jpg","null","","",""
"html-keyboard-response","23","227214","0.0-8.0-1.5","9az90mt668upazr","1","60bec50b7af1ca8be684127b","22","04/1999","Single","English","Cantonese","Male","Asian","No","Undergraduate degree","Yes, Undergraduate studies","N/A","N/A","N/A","3","0","4","1","3","0.8833333179999999","stim/H230.jpg","76","76","0.6000000160000001","3","2","3","","3","1","3","2","2","3","3","4","1","2","0","4","4","5","1","5","5","1","5","2","3","4","0","4","5","3","1","5","5","5","1","1","1","2","3","3","3","3","4","4","4","3","3","3","2","1","4","4","3","4","1","4","5","4","3","1","0","0","2","1","1","agree","821","","","","","","","","<div style=""font-size:60px;"">?</div>","65","6","Practice","0.5"
"image-keyboard-response","24","228225","0.0-8.0-0.6","9az90mt668upazr","1","60bec50b7af1ca8be684127b","22","04/1999","Single","English","Cantonese","Male","Asian","No","Undergraduate degree","Yes, Undergraduate studies","N/A","N/A","N/A","3","0","4","1","3","0.8833333179999999","stim/H230.jpg","76","76","0.6000000160000001","3","2","3","","3","1","3","2","2","3","3","4","1","2","0","4","4","5","1","5","5","1","5","2","3","4","0","4","5","3","1","5","5","5","1","1","1","2","3","3","3","3","4","4","4","3","3","3","2","1","4","4","3","4","1","4","5","4","3","1","0","0","2","1","1","agree","null","","","","","","","","stim/H060.jpg","null","","",""
"html-keyboard-response","25","228476","0.0-8.0-1.6","9az90mt668upazr","1","60bec50b7af1ca8be684127b","22","04/1999","Single","English","Cantonese","Male","Asian","No","Undergraduate degree","Yes, Undergraduate studies","N/A","N/A","N/A","3","0","4","1","3","0.8833333179999999","stim/H230.jpg","76","76","0.6000000160000001","3","2","3","","3","1","3","2","2","3","3","4","1","2","0","4","4","5","1","5","5","1","5","2","3","4","0","4","5","3","1","5","5","5","1","1","1","2","3","3","3","3","4","4","4","3","3","3","2","1","4","4","3","4","1","4","5","4","3","1","0","0","2","1","1","agree","251","","","","","","","","<div style=""font-size:60px;"">?</div>","76","7","Practice","0.5"
"image-keyboard-response","26","229493","0.0-8.0-0.7","9az90mt668upazr","1","60bec50b7af1ca8be684127b","22","04/1999","Single","English","Cantonese","Male","Asian","No","Undergraduate degree","Yes, Undergraduate studies","N/A","N/A","N/A","3","0","4","1","3","0.8833333179999999","stim/H230.jpg","76","76","0.6000000160000001","3","2","3","","3","1","3","2","2","3","3","4","1","2","0","4","4","5","1","5","5","1","5","2","3","4","0","4","5","3","1","5","5","5","1","1","1","2","3","3","3","3","4","4","4","3","3","3","2","1","4","4","3","4","1","4","5","4","3","1","0","0","2","1","1","agree","null","","","","","","","","stim/H260.jpg","null","","",""
"html-keyboard-response","27","229651","0.0-8.0-1.7","9az90mt668upazr","1","60bec50b7af1ca8be684127b","22","04/1999","Single","English","Cantonese","Male","Asian","No","Undergraduate degree","Yes, Undergraduate studies","N/A","N/A","N/A","3","0","4","1","3","0.8833333179999999","stim/H230.jpg","76","76","0.6000000160000001","3","2","3","","3","1","3","2","2","3","3","4","1","2","0","4","4","5","1","5","5","1","5","2","3","4","0","4","5","3","1","5","5","5","1","1","1","2","3","3","3","3","4","4","4","3","3","3","2","1","4","4","3","4","1","4","5","4","3","1","0","0","2","1","1","agree","159","","","","","","","","<div style=""font-size:60px;"">?</div>","76","8","Practice","0.5"
"image-keyboard-response","28","230665","0.0-8.0-0.8","9az90mt668upazr","1","60bec50b7af1ca8be684127b","22","04/1999","Single","English","Cantonese","Male","Asian","No","Undergraduate degree","Yes, Undergraduate studies","N/A","N/A","N/A","3","0","4","1","3","0.8833333179999999","stim/H230.jpg","76","76","0.6000000160000001","3","2","3","","3","1","3","2","2","3","3","4","1","2","0","4","4","5","1","5","5","1","5","2","3","4","0","4","5","3","1","5","5","5","1","1","1","2","3","3","3","3","4","4","4","3","3","3","2","1","4","4","3","4","1","4","5","4","3","1","0","0","2","1","1","agree","null","","","","","","","","stim/H110.jpg","null","","",""
"html-keyboard-response","29","230914","0.0-8.0-1.8","9az90mt668upazr","1","60bec50b7af1ca8be684127b","22","04/1999","Single","English","Cantonese","Male","Asian","No","Undergraduate degree","Yes, Undergraduate studies","N/A","N/A","N/A","3","0","4","1","3","0.8833333179999999","stim/H230.jpg","76","76","0.6000000160000001","3","2","3","","3","1","3","2","2","3","3","4","1","2","0","4","4","5","1","5","5","1","5","2","3","4","0","4","5","3","1","5","5","5","1","1","1","2","3","3","3","3","4","4","4","3","3","3","2","1","4","4","3","4","1","4","5","4","3","1","0","0","2","1","1","agree","249","","","","","","","","<div style=""font-size:60px;"">?</div>","76","9","Practice","0.5"
"image-keyboard-response","30","231929","0.0-8.0-0.9","9az90mt668upazr","1","60bec50b7af1ca8be684127b","22","04/1999","Single","English","Cantonese","Male","Asian","No","Undergraduate degree","Yes, Undergraduate studies","N/A","N/A","N/A","3","0","4","1","3","0.8833333179999999","stim/H230.jpg","76","76","0.6000000160000001","3","2","3","","3","1","3","2","2","3","3","4","1","2","0","4","4","5","1","5","5","1","5","2","3","4","0","4","5","3","1","5","5","5","1","1","1","2","3","3","3","3","4","4","4","3","3","3","2","1","4","4","3","4","1","4","5","4","3","1","0","0","2","1","1","agree","null","","","","","","","","stim/H160.jpg","null","","",""
"html-keyboard-response","31","232176","0.0-8.0-1.9","9az90mt668upazr","1","60bec50b7af1ca8be684127b","22","04/1999","Single","English","Cantonese","Male","Asian","No","Undergraduate degree","Yes, Undergraduate studies","N/A","N/A","N/A","3","0","4","1","3","0.8833333179999999","stim/H230.jpg","76","76","0.6000000160000001","3","2","3","","3","1","3","2","2","3","3","4","1","2","0","4","4","5","1","5","5","1","5","2","3","4","0","4","5","3","1","5","5","5","1","1","1","2","3","3","3","3","4","4","4","3","3","3","2","1","4","4","3","4","1","4","5","4","3","1","0","0","2","1","1","agree","246","","","","","","","","<div style=""font-size:60px;"">?</div>","76","10","Practice","0.5"
"html-keyboard-response","32","238113","0.0-9.0","9az90mt668upazr","1","60bec50b7af1ca8be684127b","22","04/1999","Single","English","Cantonese","Male","Asian","No","Undergraduate degree","Yes, Undergraduate studies","N/A","N/A","N/A","3","0","4","1","3","0.8833333179999999","stim/H230.jpg","76","76","0.6000000160000001","3","2","3","","3","1","3","2","2","3","3","4","1","2","0","4","4","5","1","5","5","1","5","2","3","4","0","4","5","3","1","5","5","5","1","1","1","2","3","3","3","3","4","4","4","3","3","3","2","1","4","4","3","4","1","4","5","4","3","1","0","0","2","1","1","agree","5422","","","","","","","","<p>You have now completed the practice series.</p><p>If you have any questions, please reload this page and read the instructions again.</p><p>Otherwise, you're ready to begin the study!</p><p><strong>REMEMBER</strong>: Press <b>L </b>when you think the face is of Western origin, and <b>A </b>if not. </p><p>Press SPACE when you're ready to start!</p>","32","","",""
"html-keyboard-response","33","239477","0.0-10.0","9az90mt668upazr","1","60bec50b7af1ca8be684127b","22","04/1999","Single","English","Cantonese","Male","Asian","No","Undergraduate degree","Yes, Undergraduate studies","N/A","N/A","N/A","3","0","4","1","3","0.8833333179999999","stim/H230.jpg","76","76","0.6000000160000001","3","2","3","","3","1","3","2","2","3","3","4","1","2","0","4","4","5","1","5","5","1","5","2","3","4","0","4","5","3","1","5","5","5","1","1","1","2","3","3","3","3","4","4","4","3","3","3","2","1","4","4","3","4","1","4","5","4","3","1","0","0","2","1","1","agree","853","","","","","","","","<p>Block 1</p><p>Press SPACE to continue.</p>","32","","",""
"image-keyboard-response","34","240998","0.0-11.0-0.0","9az90mt668upazr","1","60bec50b7af1ca8be684127b","22","04/1999","Single","English","Cantonese","Male","Asian","No","Undergraduate degree","Yes, Undergraduate studies","N/A","N/A","N/A","3","0","4","1","3","0.8833333179999999","stim/H230.jpg","76","76","0.6000000160000001","3","2","3","","3","1","3","2","2","3","3","4","1","2","0","4","4","5","1","5","5","1","5","2","3","4","0","4","5","3","1","5","5","5","1","1","1","2","3","3","3","3","4","4","4","3","3","3","2","1","4","4","3","4","1","4","5","4","3","1","0","0","2","1","1","agree","null","","","","","","","","stim/H290.jpg","null","","",""
"html-keyboard-response","35","241003","0.0-11.0-1.0","9az90mt668upazr","1","60bec50b7af1ca8be684127b","22","04/1999","Single","English","Cantonese","Male","Asian","No","Undergraduate degree","Yes, Undergraduate studies","N/A","N/A","N/A","3","0","4","1","3","0.8833333179999999","stim/H230.jpg","76","76","0.6000000160000001","3","2","3","","3","1","3","2","2","3","3","4","1","2","0","4","4","5","1","5","5","1","5","2","3","4","0","4","5","3","1","5","5","5","1","1","1","2","3","3","3","3","4","4","4","3","3","3","2","1","4","4","3","4","1","4","5","4","3","1","0","0","2","1","1","agree","4","","","","","","","","<div style=""font-size:60px;"">?</div>","76","1","1","0.8"
"image-keyboard-response","36","242017","0.0-11.0-0.1","9az90mt668upazr","1","60bec50b7af1ca8be684127b","22","04/1999","Single","English","Cantonese","Male","Asian","No","Undergraduate degree","Yes, Undergraduate studies","N/A","N/A","N/A","3","0","4","1","3","0.8833333179999999","stim/H230.jpg","76","76","0.6000000160000001","3","2","3","","3","1","3","2","2","3","3","4","1","2","0","4","4","5","1","5","5","1","5","2","3","4","0","4","5","3","1","5","5","5","1","1","1","2","3","3","3","3","4","4","4","3","3","3","2","1","4","4","3","4","1","4","5","4","3","1","0","0","2","1","1","agree","null","","","","","","","","stim/T080.jpg","null","","",""
"html-keyboard-response","37","242053","0.0-11.0-1.1","9az90mt668upazr","1","60bec50b7af1ca8be684127b","22","04/1999","Single","English","Cantonese","Male","Asian","No","Undergraduate degree","Yes, Undergraduate studies","N/A","N/A","N/A","3","0","4","1","3","0.8833333179999999","stim/H230.jpg","76","76","0.6000000160000001","3","2","3","","3","1","3","2","2","3","3","4","1","2","0","4","4","5","1","5","5","1","5","2","3","4","0","4","5","3","1","5","5","5","1","1","1","2","3","3","3","3","4","4","4","3","3","3","2","1","4","4","3","4","1","4","5","4","3","1","0","0","2","1","1","agree","34","","","","","","","","<div style=""font-size:60px;"">?</div>","65","2","1","0.8"
"image-keyboard-response","38","243079","0.0-11.0-0.2","9az90mt668upazr","1","60bec50b7af1ca8be684127b","22","04/1999","Single","English","Cantonese","Male","Asian","No","Undergraduate degree","Yes, Undergraduate studies","N/A","N/A","N/A","3","0","4","1","3","0.8833333179999999","stim/H230.jpg","76","76","0.6000000160000001","3","2","3","","3","1","3","2","2","3","3","4","1","2","0","4","4","5","1","5","5","1","5","2","3","4","0","4","5","3","1","5","5","5","1","1","1","2","3","3","3","3","4","4","4","3","3","3","2","1","4","4","3","4","1","4","5","4","3","1","0","0","2","1","1","agree","null","","","","","","","","stim/T090.jpg","null","","",""
"html-keyboard-response","39","244702","0.0-11.0-1.2","9az90mt668upazr","1","60bec50b7af1ca8be684127b","22","04/1999","Single","English","Cantonese","Male","Asian","No","Undergraduate degree","Yes, Undergraduate studies","N/A","N/A","N/A","3","0","4","1","3","0.8833333179999999","stim/H230.jpg","76","76","0.6000000160000001","3","2","3","","3","1","3","2","2","3","3","4","1","2","0","4","4","5","1","5","5","1","5","2","3","4","0","4","5","3","1","5","5","5","1","1","1","2","3","3","3","3","4","4","4","3","3","3","2","1","4","4","3","4","1","4","5","4","3","1","0","0","2","1","1","agree","1623","","","","","","","","<div style=""font-size:60px;"">?</div>","65","3","1","0.8"
"image-keyboard-response","40","245719","0.0-11.0-0.3","9az90mt668upazr","1","60bec50b7af1ca8be684127b","22","04/1999","Single","English","Cantonese","Male","Asian","No","Undergraduate degree","Yes, Undergraduate studies","N/A","N/A","N/A","3","0","4","1","3","0.8833333179999999","stim/H230.jpg","76","76","0.6000000160000001","3","2","3","","3","1","3","2","2","3","3","4","1","2","0","4","4","5","1","5","5","1","5","2","3","4","0","4","5","3","1","5","5","5","1","1","1","2","3","3","3","3","4","4","4","3","3","3","2","1","4","4","3","4","1","4","5","4","3","1","0","0","2","1","1","agree","null","","","","","","","","stim/H210.jpg","null","","",""
"html-keyboard-response","41","246028","0.0-11.0-1.3","9az90mt668upazr","1","60bec50b7af1ca8be684127b","22","04/1999","Single","English","Cantonese","Male","Asian","No","Undergraduate degree","Yes, Undergraduate studies","N/A","N/A","N/A","3","0","4","1","3","0.8833333179999999","stim/H230.jpg","76","76","0.6000000160000001","3","2","3","","3","1","3","2","2","3","3","4","1","2","0","4","4","5","1","5","5","1","5","2","3","4","0","4","5","3","1","5","5","5","1","1","1","2","3","3","3","3","4","4","4","3","3","3","2","1","4","4","3","4","1","4","5","4","3","1","0","0","2","1","1","agree","309","","","","","","","","<div style=""font-size:60px;"">?</div>","76","4","1","0.8"
"image-keyboard-response","42","247033","0.0-11.0-0.4","9az90mt668upazr","1","60bec50b7af1ca8be684127b","22","04/1999","Single","English","Cantonese","Male","Asian","No","Undergraduate degree","Yes, Undergraduate studies","N/A","N/A","N/A","3","0","4","1","3","0.8833333179999999","stim/H230.jpg","76","76","0.6000000160000001","3","2","3","","3","1","3","2","2","3","3","4","1","2","0","4","4","5","1","5","5","1","5","2","3","4","0","4","5","3","1","5","5","5","1","1","1","2","3","3","3","3","4","4","4","3","3","3","2","1","4","4","3","4","1","4","5","4","3","1","0","0","2","1","1","agree","null","","","","","","","","stim/T020.jpg","null","","",""
"html-keyboard-response","43","247427","0.0-11.0-1.4","9az90mt668upazr","1","60bec50b7af1ca8be684127b","22","04/1999","Single","English","Cantonese","Male","Asian","No","Undergraduate degree","Yes, Undergraduate studies","N/A","N/A","N/A","3","0","4","1","3","0.8833333179999999","stim/H230.jpg","76","76","0.6000000160000001","3","2","3","","3","1","3","2","2","3","3","4","1","2","0","4","4","5","1","5","5","1","5","2","3","4","0","4","5","3","1","5","5","5","1","1","1","2","3","3","3","3","4","4","4","3","3","3","2","1","4","4","3","4","1","4","5","4","3","1","0","0","2","1","1","agree","394","","","","","","","","<div style=""font-size:60px;"">?</div>","65","5","1","0.8"
"image-keyboard-response","44","248443","0.0-11.0-0.5","9az90mt668upazr","1","60bec50b7af1ca8be684127b","22","04/1999","Single","English","Cantonese","Male","Asian","No","Undergraduate degree","Yes, Undergraduate studies","N/A","N/A","N/A","3","0","4","1","3","0.8833333179999999","stim/H230.jpg","76","76","0.6000000160000001","3","2","3","","3","1","3","2","2","3","3","4","1","2","0","4","4","5","1","5","5","1","5","2","3","4","0","4","5","3","1","5","5","5","1","1","1","2","3","3","3","3","4","4","4","3","3","3","2","1","4","4","3","4","1","4","5","4","3","1","0","0","2","1","1","agree","null","","","","","","","","stim/T260.jpg","null","","",""
"html-keyboard-response","45","248852","0.0-11.0-1.5","9az90mt668upazr","1","60bec50b7af1ca8be684127b","22","04/1999","Single","English","Cantonese","Male","Asian","No","Undergraduate degree","Yes, Undergraduate studies","N/A","N/A","N/A","3","0","4","1","3","0.8833333179999999","stim/H230.jpg","76","76","0.6000000160000001","3","2","3","","3","1","3","2","2","3","3","4","1","2","0","4","4","5","1","5","5","1","5","2","3","4","0","4","5","3","1","5","5","5","1","1","1","2","3","3","3","3","4","4","4","3","3","3","2","1","4","4","3","4","1","4","5","4","3","1","0","0","2","1","1","agree","409","","","","","","","","<div style=""font-size:60px;"">?</div>","65","6","1","0.8"
"image-keyboard-response","46","249865","0.0-11.0-0.6","9az90mt668upazr","1","60bec50b7af1ca8be684127b","22","04/1999","Single","English","Cantonese","Male","Asian","No","Undergraduate degree","Yes, Undergraduate studies","N/A","N/A","N/A","3","0","4","1","3","0.8833333179999999","stim/H230.jpg","76","76","0.6000000160000001","3","2","3","","3","1","3","2","2","3","3","4","1","2","0","4","4","5","1","5","5","1","5","2","3","4","0","4","5","3","1","5","5","5","1","1","1","2","3","3","3","3","4","4","4","3","3","3","2","1","4","4","3","4","1","4","5","4","3","1","0","0","2","1","1","agree","null","","","","","","","","stim/H290.jpg","null","","",""
"html-keyboard-response","47","250152","0.0-11.0-1.6","9az90mt668upazr","1","60bec50b7af1ca8be684127b","22","04/1999","Single","English","Cantonese","Male","Asian","No","Undergraduate degree","Yes, Undergraduate studies","N/A","N/A","N/A","3","0","4","1","3","0.8833333179999999","stim/H230.jpg","76","76","0.6000000160000001","3","2","3","","3","1","3","2","2","3","3","4","1","2","0","4","4","5","1","5","5","1","5","2","3","4","0","4","5","3","1","5","5","5","1","1","1","2","3","3","3","3","4","4","4","3","3","3","2","1","4","4","3","4","1","4","5","4","3","1","0","0","2","1","1","agree","286","","","","","","","","<div style=""font-size:60px;"">?</div>","76","7","1","0.8"
"image-keyboard-response","48","251172","0.0-11.0-0.7","9az90mt668upazr","1","60bec50b7af1ca8be684127b","22","04/1999","Single","English","Cantonese","Male","Asian","No","Undergraduate degree","Yes, Undergraduate studies","N/A","N/A","N/A","3","0","4","1","3","0.8833333179999999","stim/H230.jpg","76","76","0.6000000160000001","3","2","3","","3","1","3","2","2","3","3","4","1","2","0","4","4","5","1","5","5","1","5","2","3","4","0","4","5","3","1","5","5","5","1","1","1","2","3","3","3","3","4","4","4","3","3","3","2","1","4","4","3","4","1","4","5","4","3","1","0","0","2","1","1","agree","null","","","","","","","","stim/H020.jpg","null","","",""
"html-keyboard-response","49","251676","0.0-11.0-1.7","9az90mt668upazr","1","60bec50b7af1ca8be684127b","22","04/1999","Single","English","Cantonese","Male","Asian","No","Undergraduate degree","Yes, Undergraduate studies","N/A","N/A","N/A","3","0","4","1","3","0.8833333179999999","stim/H230.jpg","76","76","0.6000000160000001","3","2","3","","3","1","3","2","2","3","3","4","1","2","0","4","4","5","1","5","5","1","5","2","3","4","0","4","5","3","1","5","5","5","1","1","1","2","3","3","3","3","4","4","4","3","3","3","2","1","4","4","3","4","1","4","5","4","3","1","0","0","2","1","1","agree","504","","","","","","","","<div style=""font-size:60px;"">?</div>","76","8","1","0.8"
"image-keyboard-response","50","252700","0.0-11.0-0.8","9az90mt668upazr","1","60bec50b7af1ca8be684127b","22","04/1999","Single","English","Cantonese","Male","Asian","No","Undergraduate degree","Yes, Undergraduate studies","N/A","N/A","N/A","3","0","4","1","3","0.8833333179999999","stim/H230.jpg","76","76","0.6000000160000001","3","2","3","","3","1","3","2","2","3","3","4","1","2","0","4","4","5","1","5","5","1","5","2","3","4","0","4","5","3","1","5","5","5","1","1","1","2","3","3","3","3","4","4","4","3","3","3","2","1","4","4","3","4","1","4","5","4","3","1","0","0","2","1","1","agree","null","","","","","","","","stim/H020.jpg","null","","",""
"html-keyboard-response","51","252988","0.0-11.0-1.8","9az90mt668upazr","1","60bec50b7af1ca8be684127b","22","04/1999","Single","English","Cantonese","Male","Asian","No","Undergraduate degree","Yes, Undergraduate studies","N/A","N/A","N/A","3","0","4","1","3","0.8833333179999999","stim/H230.jpg","76","76","0.6000000160000001","3","2","3","","3","1","3","2","2","3","3","4","1","2","0","4","4","5","1","5","5","1","5","2","3","4","0","4","5","3","1","5","5","5","1","1","1","2","3","3","3","3","4","4","4","3","3","3","2","1","4","4","3","4","1","4","5","4","3","1","0","0","2","1","1","agree","288","","","","","","","","<div style=""font-size:60px;"">?</div>","76","9","1","0.8"
"image-keyboard-response","52","254005","0.0-11.0-0.9","9az90mt668upazr","1","60bec50b7af1ca8be684127b","22","04/1999","Single","English","Cantonese","Male","Asian","No","Undergraduate degree","Yes, Undergraduate studies","N/A","N/A","N/A","3","0","4","1","3","0.8833333179999999","stim/H230.jpg","76","76","0.6000000160000001","3","2","3","","3","1","3","2","2","3","3","4","1","2","0","4","4","5","1","5","5","1","5","2","3","4","0","4","5","3","1","5","5","5","1","1","1","2","3","3","3","3","4","4","4","3","3","3","2","1","4","4","3","4","1","4","5","4","3","1","0","0","2","1","1","agree","null","","","","","","","","stim/H260.jpg","null","","",""
"html-keyboard-response","53","254427","0.0-11.0-1.9","9az90mt668upazr","1","60bec50b7af1ca8be684127b","22","04/1999","Single","English","Cantonese","Male","Asian","No","Undergraduate degree","Yes, Undergraduate studies","N/A","N/A","N/A","3","0","4","1","3","0.8833333179999999","stim/H230.jpg","76","76","0.6000000160000001","3","2","3","","3","1","3","2","2","3","3","4","1","2","0","4","4","5","1","5","5","1","5","2","3","4","0","4","5","3","1","5","5","5","1","1","1","2","3","3","3","3","4","4","4","3","3","3","2","1","4","4","3","4","1","4","5","4","3","1","0","0","2","1","1","agree","421","","","","","","","","<div style=""font-size:60px;"">?</div>","76","10","1","0.8"
"image-keyboard-response","54","255446","0.0-11.0-0.10","9az90mt668upazr","1","60bec50b7af1ca8be684127b","22","04/1999","Single","English","Cantonese","Male","Asian","No","Undergraduate degree","Yes, Undergraduate studies","N/A","N/A","N/A","3","0","4","1","3","0.8833333179999999","stim/H230.jpg","76","76","0.6000000160000001","3","2","3","","3","1","3","2","2","3","3","4","1","2","0","4","4","5","1","5","5","1","5","2","3","4","0","4","5","3","1","5","5","5","1","1","1","2","3","3","3","3","4","4","4","3","3","3","2","1","4","4","3","4","1","4","5","4","3","1","0","0","2","1","1","agree","null","","","","","","","","stim/H040.jpg","null","","",""
"html-keyboard-response","55","255727","0.0-11.0-1.10","9az90mt668upazr","1","60bec50b7af1ca8be684127b","22","04/1999","Single","English","Cantonese","Male","Asian","No","Undergraduate degree","Yes, Undergraduate studies","N/A","N/A","N/A","3","0","4","1","3","0.8833333179999999","stim/H230.jpg","76","76","0.6000000160000001","3","2","3","","3","1","3","2","2","3","3","4","1","2","0","4","4","5","1","5","5","1","5","2","3","4","0","4","5","3","1","5","5","5","1","1","1","2","3","3","3","3","4","4","4","3","3","3","2","1","4","4","3","4","1","4","5","4","3","1","0","0","2","1","1","agree","280","","","","","","","","<div style=""font-size:60px;"">?</div>","76","11","1","0.8"
"image-keyboard-response","56","256743","0.0-11.0-0.11","9az90mt668upazr","1","60bec50b7af1ca8be684127b","22","04/1999","Single","English","Cantonese","Male","Asian","No","Undergraduate degree","Yes, Undergraduate studies","N/A","N/A","N/A","3","0","4","1","3","0.8833333179999999","stim/H230.jpg","76","76","0.6000000160000001","3","2","3","","3","1","3","2","2","3","3","4","1","2","0","4","4","5","1","5","5","1","5","2","3","4","0","4","5","3","1","5","5","5","1","1","1","2","3","3","3","3","4","4","4","3","3","3","2","1","4","4","3","4","1","4","5","4","3","1","0","0","2","1","1","agree","null","","","","","","","","stim/H170.jpg","null","","",""
"html-keyboard-response","57","257027","0.0-11.0-1.11","9az90mt668upazr","1","60bec50b7af1ca8be684127b","22","04/1999","Single","English","Cantonese","Male","Asian","No","Undergraduate degree","Yes, Undergraduate studies","N/A","N/A","N/A","3","0","4","1","3","0.8833333179999999","stim/H230.jpg","76","76","0.6000000160000001","3","2","3","","3","1","3","2","2","3","3","4","1","2","0","4","4","5","1","5","5","1","5","2","3","4","0","4","5","3","1","5","5","5","1","1","1","2","3","3","3","3","4","4","4","3","3","3","2","1","4","4","3","4","1","4","5","4","3","1","0","0","2","1","1","agree","284","","","","","","","","<div style=""font-size:60px;"">?</div>","76","12","1","0.8"
"image-keyboard-response","58","258042","0.0-11.0-0.12","9az90mt668upazr","1","60bec50b7af1ca8be684127b","22","04/1999","Single","English","Cantonese","Male","Asian","No","Undergraduate degree","Yes, Undergraduate studies","N/A","N/A","N/A","3","0","4","1","3","0.8833333179999999","stim/H230.jpg","76","76","0.6000000160000001","3","2","3","","3","1","3","2","2","3","3","4","1","2","0","4","4","5","1","5","5","1","5","2","3","4","0","4","5","3","1","5","5","5","1","1","1","2","3","3","3","3","4","4","4","3","3","3","2","1","4","4","3","4","1","4","5","4","3","1","0","0","2","1","1","agree","null","","","","","","","","stim/H190.jpg","null","","",""
"html-keyboard-response","59","258289","0.0-11.0-1.12","9az90mt668upazr","1","60bec50b7af1ca8be684127b","22","04/1999","Single","English","Cantonese","Male","Asian","No","Undergraduate degree","Yes, Undergraduate studies","N/A","N/A","N/A","3","0","4","1","3","0.8833333179999999","stim/H230.jpg","76","76","0.6000000160000001","3","2","3","","3","1","3","2","2","3","3","4","1","2","0","4","4","5","1","5","5","1","5","2","3","4","0","4","5","3","1","5","5","5","1","1","1","2","3","3","3","3","4","4","4","3","3","3","2","1","4","4","3","4","1","4","5","4","3","1","0","0","2","1","1","agree","246","","","","","","","","<div style=""font-size:60px;"">?</div>","76","13","1","0.8"
"image-keyboard-response","60","259300","0.0-11.0-0.13","9az90mt668upazr","1","60bec50b7af1ca8be684127b","22","04/1999","Single","English","Cantonese","Male","Asian","No","Undergraduate degree","Yes, Undergraduate studies","N/A","N/A","N/A","3","0","4","1","3","0.8833333179999999","stim/H230.jpg","76","76","0.6000000160000001","3","2","3","","3","1","3","2","2","3","3","4","1","2","0","4","4","5","1","5","5","1","5","2","3","4","0","4","5","3","1","5","5","5","1","1","1","2","3","3","3","3","4","4","4","3","3","3","2","1","4","4","3","4","1","4","5","4","3","1","0","0","2","1","1","agree","null","","","","","","","","stim/T200.jpg","null","","",""
"html-keyboard-response","61","259552","0.0-11.0-1.13","9az90mt668upazr","1","60bec50b7af1ca8be684127b","22","04/1999","Single","English","Cantonese","Male","Asian","No","Undergraduate degree","Yes, Undergraduate studies","N/A","N/A","N/A","3","0","4","1","3","0.8833333179999999","stim/H230.jpg","76","76","0.6000000160000001","3","2","3","","3","1","3","2","2","3","3","4","1","2","0","4","4","5","1","5","5","1","5","2","3","4","0","4","5","3","1","5","5","5","1","1","1","2","3","3","3","3","4","4","4","3","3","3","2","1","4","4","3","4","1","4","5","4","3","1","0","0","2","1","1","agree","251","","","","","","","","<div style=""font-size:60px;"">?</div>","65","14","1","0.8"
"image-keyboard-response","62","260572","0.0-11.0-0.14","9az90mt668upazr","1","60bec50b7af1ca8be684127b","22","04/1999","Single","English","Cantonese","Male","Asian","No","Undergraduate degree","Yes, Undergraduate studies","N/A","N/A","N/A","3","0","4","1","3","0.8833333179999999","stim/H230.jpg","76","76","0.6000000160000001","3","2","3","","3","1","3","2","2","3","3","4","1","2","0","4","4","5","1","5","5","1","5","2","3","4","0","4","5","3","1","5","5","5","1","1","1","2","3","3","3","3","4","4","4","3","3","3","2","1","4","4","3","4","1","4","5","4","3","1","0","0","2","1","1","agree","null","","","","","","","","stim/H070.jpg","null","","",""
"html-keyboard-response","63","260804","0.0-11.0-1.14","9az90mt668upazr","1","60bec50b7af1ca8be684127b","22","04/1999","Single","English","Cantonese","Male","Asian","No","Undergraduate degree","Yes, Undergraduate studies","N/A","N/A","N/A","3","0","4","1","3","0.8833333179999999","stim/H230.jpg","76","76","0.6000000160000001","3","2","3","","3","1","3","2","2","3","3","4","1","2","0","4","4","5","1","5","5","1","5","2","3","4","0","4","5","3","1","5","5","5","1","1","1","2","3","3","3","3","4","4","4","3","3","3","2","1","4","4","3","4","1","4","5","4","3","1","0","0","2","1","1","agree","231","","","","","","","","<div style=""font-size:60px;"">?</div>","76","15","1","0.8"
"image-keyboard-response","64","261819","0.0-11.0-0.15","9az90mt668upazr","1","60bec50b7af1ca8be684127b","22","04/1999","Single","English","Cantonese","Male","Asian","No","Undergraduate degree","Yes, Undergraduate studies","N/A","N/A","N/A","3","0","4","1","3","0.8833333179999999","stim/H230.jpg","76","76","0.6000000160000001","3","2","3","","3","1","3","2","2","3","3","4","1","2","0","4","4","5","1","5","5","1","5","2","3","4","0","4","5","3","1","5","5","5","1","1","1","2","3","3","3","3","4","4","4","3","3","3","2","1","4","4","3","4","1","4","5","4","3","1","0","0","2","1","1","agree","null","","","","","","","","stim/H020.jpg","null","","",""
"html-keyboard-response","65","262077","0.0-11.0-1.15","9az90mt668upazr","1","60bec50b7af1ca8be684127b","22","04/1999","Single","English","Cantonese","Male","Asian","No","Undergraduate degree","Yes, Undergraduate studies","N/A","N/A","N/A","3","0","4","1","3","0.8833333179999999","stim/H230.jpg","76","76","0.6000000160000001","3","2","3","","3","1","3","2","2","3","3","4","1","2","0","4","4","5","1","5","5","1","5","2","3","4","0","4","5","3","1","5","5","5","1","1","1","2","3","3","3","3","4","4","4","3","3","3","2","1","4","4","3","4","1","4","5","4","3","1","0","0","2","1","1","agree","257","","","","","","","","<div style=""font-size:60px;"">?</div>","76","16","1","0.8"
"image-keyboard-response","66","263103","0.0-11.0-0.16","9az90mt668upazr","1","60bec50b7af1ca8be684127b","22","04/1999","Single","English","Cantonese","Male","Asian","No","Undergraduate degree","Yes, Undergraduate studies","N/A","N/A","N/A","3","0","4","1","3","0.8833333179999999","stim/H230.jpg","76","76","0.6000000160000001","3","2","3","","3","1","3","2","2","3","3","4","1","2","0","4","4","5","1","5","5","1","5","2","3","4","0","4","5","3","1","5","5","5","1","1","1","2","3","3","3","3","4","4","4","3","3","3","2","1","4","4","3","4","1","4","5","4","3","1","0","0","2","1","1","agree","null","","","","","","","","stim/H100.jpg","null","","",""
"html-keyboard-response","67","263340","0.0-11.0-1.16","9az90mt668upazr","1","60bec50b7af1ca8be684127b","22","04/1999","Single","English","Cantonese","Male","Asian","No","Undergraduate degree","Yes, Undergraduate studies","N/A","N/A","N/A","3","0","4","1","3","0.8833333179999999","stim/H230.jpg","76","76","0.6000000160000001","3","2","3","","3","1","3","2","2","3","3","4","1","2","0","4","4","5","1","5","5","1","5","2","3","4","0","4","5","3","1","5","5","5","1","1","1","2","3","3","3","3","4","4","4","3","3","3","2","1","4","4","3","4","1","4","5","4","3","1","0","0","2","1","1","agree","237","","","","","","","","<div style=""font-size:60px;"">?</div>","76","17","1","0.8"
"image-keyboard-response","68","264365","0.0-11.0-0.17","9az90mt668upazr","1","60bec50b7af1ca8be684127b","22","04/1999","Single","English","Cantonese","Male","Asian","No","Undergraduate degree","Yes, Undergraduate studies","N/A","N/A","N/A","3","0","4","1","3","0.8833333179999999","stim/H230.jpg","76","76","0.6000000160000001","3","2","3","","3","1","3","2","2","3","3","4","1","2","0","4","4","5","1","5","5","1","5","2","3","4","0","4","5","3","1","5","5","5","1","1","1","2","3","3","3","3","4","4","4","3","3","3","2","1","4","4","3","4","1","4","5","4","3","1","0","0","2","1","1","agree","null","","","","","","","","stim/H190.jpg","null","","",""
"html-keyboard-response","69","264603","0.0-11.0-1.17","9az90mt668upazr","1","60bec50b7af1ca8be684127b","22","04/1999","Single","English","Cantonese","Male","Asian","No","Undergraduate degree","Yes, Undergraduate studies","N/A","N/A","N/A","3","0","4","1","3","0.8833333179999999","stim/H230.jpg","76","76","0.6000000160000001","3","2","3","","3","1","3","2","2","3","3","4","1","2","0","4","4","5","1","5","5","1","5","2","3","4","0","4","5","3","1","5","5","5","1","1","1","2","3","3","3","3","4","4","4","3","3","3","2","1","4","4","3","4","1","4","5","4","3","1","0","0","2","1","1","agree","237","","","","","","","","<div style=""font-size:60px;"">?</div>","76","18","1","0.8"
"image-keyboard-response","70","265627","0.0-11.0-0.18","9az90mt668upazr","1","60bec50b7af1ca8be684127b","22","04/1999","Single","English","Cantonese","Male","Asian","No","Undergraduate degree","Yes, Undergraduate studies","N/A","N/A","N/A","3","0","4","1","3","0.8833333179999999","stim/H230.jpg","76","76","0.6000000160000001","3","2","3","","3","1","3","2","2","3","3","4","1","2","0","4","4","5","1","5","5","1","5","2","3","4","0","4","5","3","1","5","5","5","1","1","1","2","3","3","3","3","4","4","4","3","3","3","2","1","4","4","3","4","1","4","5","4","3","1","0","0","2","1","1","agree","null","","","","","","","","stim/H070.jpg","null","","",""
"html-keyboard-response","71","265863","0.0-11.0-1.18","9az90mt668upazr","1","60bec50b7af1ca8be684127b","22","04/1999","Single","English","Cantonese","Male","Asian","No","Undergraduate degree","Yes, Undergraduate studies","N/A","N/A","N/A","3","0","4","1","3","0.8833333179999999","stim/H230.jpg","76","76","0.6000000160000001","3","2","3","","3","1","3","2","2","3","3","4","1","2","0","4","4","5","1","5","5","1","5","2","3","4","0","4","5","3","1","5","5","5","1","1","1","2","3","3","3","3","4","4","4","3","3","3","2","1","4","4","3","4","1","4","5","4","3","1","0","0","2","1","1","agree","237","","","","","","","","<div style=""font-size:60px;"">?</div>","76","19","1","0.8"
"image-keyboard-response","72","266883","0.0-11.0-0.19","9az90mt668upazr","1","60bec50b7af1ca8be684127b","22","04/1999","Single","English","Cantonese","Male","Asian","No","Undergraduate degree","Yes, Undergraduate studies","N/A","N/A","N/A","3","0","4","1","3","0.8833333179999999","stim/H230.jpg","76","76","0.6000000160000001","3","2","3","","3","1","3","2","2","3","3","4","1","2","0","4","4","5","1","5","5","1","5","2","3","4","0","4","5","3","1","5","5","5","1","1","1","2","3","3","3","3","4","4","4","3","3","3","2","1","4","4","3","4","1","4","5","4","3","1","0","0","2","1","1","agree","null","","","","","","","","stim/H250.jpg","null","","",""
"html-keyboard-response","73","267166","0.0-11.0-1.19","9az90mt668upazr","1","60bec50b7af1ca8be684127b","22","04/1999","Single","English","Cantonese","Male","Asian","No","Undergraduate degree","Yes, Undergraduate studies","N/A","N/A","N/A","3","0","4","1","3","0.8833333179999999","stim/H230.jpg","76","76","0.6000000160000001","3","2","3","","3","1","3","2","2","3","3","4","1","2","0","4","4","5","1","5","5","1","5","2","3","4","0","4","5","3","1","5","5","5","1","1","1","2","3","3","3","3","4","4","4","3","3","3","2","1","4","4","3","4","1","4","5","4","3","1","0","0","2","1","1","agree","282","","","","","","","","<div style=""font-size:60px;"">?</div>","76","20","1","0.8"
"image-keyboard-response","74","268193","0.0-11.0-0.20","9az90mt668upazr","1","60bec50b7af1ca8be684127b","22","04/1999","Single","English","Cantonese","Male","Asian","No","Undergraduate degree","Yes, Undergraduate studies","N/A","N/A","N/A","3","0","4","1","3","0.8833333179999999","stim/H230.jpg","76","76","0.6000000160000001","3","2","3","","3","1","3","2","2","3","3","4","1","2","0","4","4","5","1","5","5","1","5","2","3","4","0","4","5","3","1","5","5","5","1","1","1","2","3","3","3","3","4","4","4","3","3","3","2","1","4","4","3","4","1","4","5","4","3","1","0","0","2","1","1","agree","null","","","","","","","","stim/H070.jpg","null","","",""
"html-keyboard-response","75","268477","0.0-11.0-1.20","9az90mt668upazr","1","60bec50b7af1ca8be684127b","22","04/1999","Single","English","Cantonese","Male","Asian","No","Undergraduate degree","Yes, Undergraduate studies","N/A","N/A","N/A","3","0","4","1","3","0.8833333179999999","stim/H230.jpg","76","76","0.6000000160000001","3","2","3","","3","1","3","2","2","3","3","4","1","2","0","4","4","5","1","5","5","1","5","2","3","4","0","4","5","3","1","5","5","5","1","1","1","2","3","3","3","3","4","4","4","3","3","3","2","1","4","4","3","4","1","4","5","4","3","1","0","0","2","1","1","agree","284","","","","","","","","<div style=""font-size:60px;"">?</div>","76","21","1","0.8"
"image-keyboard-response","76","269490","0.0-11.0-0.21","9az90mt668upazr","1","60bec50b7af1ca8be684127b","22","04/1999","Single","English","Cantonese","Male","Asian","No","Undergraduate degree","Yes, Undergraduate studies","N/A","N/A","N/A","3","0","4","1","3","0.8833333179999999","stim/H230.jpg","76","76","0.6000000160000001","3","2","3","","3","1","3","2","2","3","3","4","1","2","0","4","4","5","1","5","5","1","5","2","3","4","0","4","5","3","1","5","5","5","1","1","1","2","3","3","3","3","4","4","4","3","3","3","2","1","4","4","3","4","1","4","5","4","3","1","0","0","2","1","1","agree","null","","","","","","","","stim/H110.jpg","null","","",""
"html-keyboard-response","77","269765","0.0-11.0-1.21","9az90mt668upazr","1","60bec50b7af1ca8be684127b","22","04/1999","Single","English","Cantonese","Male","Asian","No","Undergraduate degree","Yes, Undergraduate studies","N/A","N/A","N/A","3","0","4","1","3","0.8833333179999999","stim/H230.jpg","76","76","0.6000000160000001","3","2","3","","3","1","3","2","2","3","3","4","1","2","0","4","4","5","1","5","5","1","5","2","3","4","0","4","5","3","1","5","5","5","1","1","1","2","3","3","3","3","4","4","4","3","3","3","2","1","4","4","3","4","1","4","5","4","3","1","0","0","2","1","1","agree","274","","","","","","","","<div style=""font-size:60px;"">?</div>","76","22","1","0.8"
"image-keyboard-response","78","270772","0.0-11.0-0.22","9az90mt668upazr","1","60bec50b7af1ca8be684127b","22","04/1999","Single","English","Cantonese","Male","Asian","No","Undergraduate degree","Yes, Undergraduate studies","N/A","N/A","N/A","3","0","4","1","3","0.8833333179999999","stim/H230.jpg","76","76","0.6000000160000001","3","2","3","","3","1","3","2","2","3","3","4","1","2","0","4","4","5","1","5","5","1","5","2","3","4","0","4","5","3","1","5","5","5","1","1","1","2","3","3","3","3","4","4","4","3","3","3","2","1","4","4","3","4","1","4","5","4","3","1","0","0","2","1","1","agree","null","","","","","","","","stim/H040.jpg","null","","",""
"html-keyboard-response","79","270990","0.0-11.0-1.22","9az90mt668upazr","1","60bec50b7af1ca8be684127b","22","04/1999","Single","English","Cantonese","Male","Asian","No","Undergraduate degree","Yes, Undergraduate studies","N/A","N/A","N/A","3","0","4","1","3","0.8833333179999999","stim/H230.jpg","76","76","0.6000000160000001","3","2","3","","3","1","3","2","2","3","3","4","1","2","0","4","4","5","1","5","5","1","5","2","3","4","0","4","5","3","1","5","5","5","1","1","1","2","3","3","3","3","4","4","4","3","3","3","2","1","4","4","3","4","1","4","5","4","3","1","0","0","2","1","1","agree","218","","","","","","","","<div style=""font-size:60px;"">?</div>","76","23","1","0.8"
"image-keyboard-response","80","272016","0.0-11.0-0.23","9az90mt668upazr","1","60bec50b7af1ca8be684127b","22","04/1999","Single","English","Cantonese","Male","Asian","No","Undergraduate degree","Yes, Undergraduate studies","N/A","N/A","N/A","3","0","4","1","3","0.8833333179999999","stim/H230.jpg","76","76","0.6000000160000001","3","2","3","","3","1","3","2","2","3","3","4","1","2","0","4","4","5","1","5","5","1","5","2","3","4","0","4","5","3","1","5","5","5","1","1","1","2","3","3","3","3","4","4","4","3","3","3","2","1","4","4","3","4","1","4","5","4","3","1","0","0","2","1","1","agree","null","","","","","","","","stim/T150.jpg","null","","",""
"html-keyboard-response","81","272314","0.0-11.0-1.23","9az90mt668upazr","1","60bec50b7af1ca8be684127b","22","04/1999","Single","English","Cantonese","Male","Asian","No","Undergraduate degree","Yes, Undergraduate studies","N/A","N/A","N/A","3","0","4","1","3","0.8833333179999999","stim/H230.jpg","76","76","0.6000000160000001","3","2","3","","3","1","3","2","2","3","3","4","1","2","0","4","4","5","1","5","5","1","5","2","3","4","0","4","5","3","1","5","5","5","1","1","1","2","3","3","3","3","4","4","4","3","3","3","2","1","4","4","3","4","1","4","5","4","3","1","0","0","2","1","1","agree","298","","","","","","","","<div style=""font-size:60px;"">?</div>","65","24","1","0.8"
"image-keyboard-response","82","273342","0.0-11.0-0.24","9az90mt668upazr","1","60bec50b7af1ca8be684127b","22","04/1999","Single","English","Cantonese","Male","Asian","No","Undergraduate degree","Yes, Undergraduate studies","N/A","N/A","N/A","3","0","4","1","3","0.8833333179999999","stim/H230.jpg","76","76","0.6000000160000001","3","2","3","","3","1","3","2","2","3","3","4","1","2","0","4","4","5","1","5","5","1","5","2","3","4","0","4","5","3","1","5","5","5","1","1","1","2","3","3","3","3","4","4","4","3","3","3","2","1","4","4","3","4","1","4","5","4","3","1","0","0","2","1","1","agree","null","","","","","","","","stim/H160.jpg","null","","",""
"html-keyboard-response","83","273616","0.0-11.0-1.24","9az90mt668upazr","1","60bec50b7af1ca8be684127b","22","04/1999","Single","English","Cantonese","Male","Asian","No","Undergraduate degree","Yes, Undergraduate studies","N/A","N/A","N/A","3","0","4","1","3","0.8833333179999999","stim/H230.jpg","76","76","0.6000000160000001","3","2","3","","3","1","3","2","2","3","3","4","1","2","0","4","4","5","1","5","5","1","5","2","3","4","0","4","5","3","1","5","5","5","1","1","1","2","3","3","3","3","4","4","4","3","3","3","2","1","4","4","3","4","1","4","5","4","3","1","0","0","2","1","1","agree","272","","","","","","","","<div style=""font-size:60px;"">?</div>","76","25","1","0.8"
"image-keyboard-response","84","274636","0.0-11.0-0.25","9az90mt668upazr","1","60bec50b7af1ca8be684127b","22","04/1999","Single","English","Cantonese","Male","Asian","No","Undergraduate degree","Yes, Undergraduate studies","N/A","N/A","N/A","3","0","4","1","3","0.8833333179999999","stim/H230.jpg","76","76","0.6000000160000001","3","2","3","","3","1","3","2","2","3","3","4","1","2","0","4","4","5","1","5","5","1","5","2","3","4","0","4","5","3","1","5","5","5","1","1","1","2","3","3","3","3","4","4","4","3","3","3","2","1","4","4","3","4","1","4","5","4","3","1","0","0","2","1","1","agree","null","","","","","","","","stim/T260.jpg","null","","",""
"html-keyboard-response","85","275040","0.0-11.0-1.25","9az90mt668upazr","1","60bec50b7af1ca8be684127b","22","04/1999","Single","English","Cantonese","Male","Asian","No","Undergraduate degree","Yes, Undergraduate studies","N/A","N/A","N/A","3","0","4","1","3","0.8833333179999999","stim/H230.jpg","76","76","0.6000000160000001","3","2","3","","3","1","3","2","2","3","3","4","1","2","0","4","4","5","1","5","5","1","5","2","3","4","0","4","5","3","1","5","5","5","1","1","1","2","3","3","3","3","4","4","4","3","3","3","2","1","4","4","3","4","1","4","5","4","3","1","0","0","2","1","1","agree","405","","","","","","","","<div style=""font-size:60px;"">?</div>","65","26","1","0.8"
"image-keyboard-response","86","276065","0.0-11.0-0.26","9az90mt668upazr","1","60bec50b7af1ca8be684127b","22","04/1999","Single","English","Cantonese","Male","Asian","No","Undergraduate degree","Yes, Undergraduate studies","N/A","N/A","N/A","3","0","4","1","3","0.8833333179999999","stim/H230.jpg","76","76","0.6000000160000001","3","2","3","","3","1","3","2","2","3","3","4","1","2","0","4","4","5","1","5","5","1","5","2","3","4","0","4","5","3","1","5","5","5","1","1","1","2","3","3","3","3","4","4","4","3","3","3","2","1","4","4","3","4","1","4","5","4","3","1","0","0","2","1","1","agree","null","","","","","","","","stim/H260.jpg","null","","",""
"html-keyboard-response","87","276315","0.0-11.0-1.26","9az90mt668upazr","1","60bec50b7af1ca8be684127b","22","04/1999","Single","English","Cantonese","Male","Asian","No","Undergraduate degree","Yes, Undergraduate studies","N/A","N/A","N/A","3","0","4","1","3","0.8833333179999999","stim/H230.jpg","76","76","0.6000000160000001","3","2","3","","3","1","3","2","2","3","3","4","1","2","0","4","4","5","1","5","5","1","5","2","3","4","0","4","5","3","1","5","5","5","1","1","1","2","3","3","3","3","4","4","4","3","3","3","2","1","4","4","3","4","1","4","5","4","3","1","0","0","2","1","1","agree","250","","","","","","","","<div style=""font-size:60px;"">?</div>","76","27","1","0.8"
"image-keyboard-response","88","277337","0.0-11.0-0.27","9az90mt668upazr","1","60bec50b7af1ca8be684127b","22","04/1999","Single","English","Cantonese","Male","Asian","No","Undergraduate degree","Yes, Undergraduate studies","N/A","N/A","N/A","3","0","4","1","3","0.8833333179999999","stim/H230.jpg","76","76","0.6000000160000001","3","2","3","","3","1","3","2","2","3","3","4","1","2","0","4","4","5","1","5","5","1","5","2","3","4","0","4","5","3","1","5","5","5","1","1","1","2","3","3","3","3","4","4","4","3","3","3","2","1","4","4","3","4","1","4","5","4","3","1","0","0","2","1","1","agree","null","","","","","","","","stim/H190.jpg","null","","",""
"html-keyboard-response","89","277641","0.0-11.0-1.27","9az90mt668upazr","1","60bec50b7af1ca8be684127b","22","04/1999","Single","English","Cantonese","Male","Asian","No","Undergraduate degree","Yes, Undergraduate studies","N/A","N/A","N/A","3","0","4","1","3","0.8833333179999999","stim/H230.jpg","76","76","0.6000000160000001","3","2","3","","3","1","3","2","2","3","3","4","1","2","0","4","4","5","1","5","5","1","5","2","3","4","0","4","5","3","1","5","5","5","1","1","1","2","3","3","3","3","4","4","4","3","3","3","2","1","4","4","3","4","1","4","5","4","3","1","0","0","2","1","1","agree","304","","","","","","","","<div style=""font-size:60px;"">?</div>","76","28","1","0.8"
"image-keyboard-response","90","278650","0.0-11.0-0.28","9az90mt668upazr","1","60bec50b7af1ca8be684127b","22","04/1999","Single","English","Cantonese","Male","Asian","No","Undergraduate degree","Yes, Undergraduate studies","N/A","N/A","N/A","3","0","4","1","3","0.8833333179999999","stim/H230.jpg","76","76","0.6000000160000001","3","2","3","","3","1","3","2","2","3","3","4","1","2","0","4","4","5","1","5","5","1","5","2","3","4","0","4","5","3","1","5","5","5","1","1","1","2","3","3","3","3","4","4","4","3","3","3","2","1","4","4","3","4","1","4","5","4","3","1","0","0","2","1","1","agree","null","","","","","","","","stim/H150.jpg","null","","",""
"html-keyboard-response","91","278927","0.0-11.0-1.28","9az90mt668upazr","1","60bec50b7af1ca8be684127b","22","04/1999","Single","English","Cantonese","Male","Asian","No","Undergraduate degree","Yes, Undergraduate studies","N/A","N/A","N/A","3","0","4","1","3","0.8833333179999999","stim/H230.jpg","76","76","0.6000000160000001","3","2","3","","3","1","3","2","2","3","3","4","1","2","0","4","4","5","1","5","5","1","5","2","3","4","0","4","5","3","1","5","5","5","1","1","1","2","3","3","3","3","4","4","4","3","3","3","2","1","4","4","3","4","1","4","5","4","3","1","0","0","2","1","1","agree","276","","","","","","","","<div style=""font-size:60px;"">?</div>","76","29","1","0.8"
"image-keyboard-response","92","279931","0.0-11.0-0.29","9az90mt668upazr","1","60bec50b7af1ca8be684127b","22","04/1999","Single","English","Cantonese","Male","Asian","No","Undergraduate degree","Yes, Undergraduate studies","N/A","N/A","N/A","3","0","4","1","3","0.8833333179999999","stim/H230.jpg","76","76","0.6000000160000001","3","2","3","","3","1","3","2","2","3","3","4","1","2","0","4","4","5","1","5","5","1","5","2","3","4","0","4","5","3","1","5","5","5","1","1","1","2","3","3","3","3","4","4","4","3","3","3","2","1","4","4","3","4","1","4","5","4","3","1","0","0","2","1","1","agree","null","","","","","","","","stim/H040.jpg","null","","",""
"html-keyboard-response","93","280177","0.0-11.0-1.29","9az90mt668upazr","1","60bec50b7af1ca8be684127b","22","04/1999","Single","English","Cantonese","Male","Asian","No","Undergraduate degree","Yes, Undergraduate studies","N/A","N/A","N/A","3","0","4","1","3","0.8833333179999999","stim/H230.jpg","76","76","0.6000000160000001","3","2","3","","3","1","3","2","2","3","3","4","1","2","0","4","4","5","1","5","5","1","5","2","3","4","0","4","5","3","1","5","5","5","1","1","1","2","3","3","3","3","4","4","4","3","3","3","2","1","4","4","3","4","1","4","5","4","3","1","0","0","2","1","1","agree","244","","","","","","","","<div style=""font-size:60px;"">?</div>","76","30","1","0.8"
"image-keyboard-response","94","281189","0.0-11.0-0.30","9az90mt668upazr","1","60bec50b7af1ca8be684127b","22","04/1999","Single","English","Cantonese","Male","Asian","No","Undergraduate degree","Yes, Undergraduate studies","N/A","N/A","N/A","3","0","4","1","3","0.8833333179999999","stim/H230.jpg","76","76","0.6000000160000001","3","2","3","","3","1","3","2","2","3","3","4","1","2","0","4","4","5","1","5","5","1","5","2","3","4","0","4","5","3","1","5","5","5","1","1","1","2","3","3","3","3","4","4","4","3","3","3","2","1","4","4","3","4","1","4","5","4","3","1","0","0","2","1","1","agree","null","","","","","","","","stim/H040.jpg","null","","",""
"html-keyboard-response","95","281427","0.0-11.0-1.30","9az90mt668upazr","1","60bec50b7af1ca8be684127b","22","04/1999","Single","English","Cantonese","Male","Asian","No","Undergraduate degree","Yes, Undergraduate studies","N/A","N/A","N/A","3","0","4","1","3","0.8833333179999999","stim/H230.jpg","76","76","0.6000000160000001","3","2","3","","3","1","3","2","2","3","3","4","1","2","0","4","4","5","1","5","5","1","5","2","3","4","0","4","5","3","1","5","5","5","1","1","1","2","3","3","3","3","4","4","4","3","3","3","2","1","4","4","3","4","1","4","5","4","3","1","0","0","2","1","1","agree","238","","","","","","","","<div style=""font-size:60px;"">?</div>","76","31","1","0.8"
"image-keyboard-response","96","282441","0.0-11.0-0.31","9az90mt668upazr","1","60bec50b7af1ca8be684127b","22","04/1999","Single","English","Cantonese","Male","Asian","No","Undergraduate degree","Yes, Undergraduate studies","N/A","N/A","N/A","3","0","4","1","3","0.8833333179999999","stim/H230.jpg","76","76","0.6000000160000001","3","2","3","","3","1","3","2","2","3","3","4","1","2","0","4","4","5","1","5","5","1","5","2","3","4","0","4","5","3","1","5","5","5","1","1","1","2","3","3","3","3","4","4","4","3","3","3","2","1","4","4","3","4","1","4","5","4","3","1","0","0","2","1","1","agree","null","","","","","","","","stim/H030.jpg","null","","",""
"html-keyboard-response","97","282727","0.0-11.0-1.31","9az90mt668upazr","1","60bec50b7af1ca8be684127b","22","04/1999","Single","English","Cantonese","Male","Asian","No","Undergraduate degree","Yes, Undergraduate studies","N/A","N/A","N/A","3","0","4","1","3","0.8833333179999999","stim/H230.jpg","76","76","0.6000000160000001","3","2","3","","3","1","3","2","2","3","3","4","1","2","0","4","4","5","1","5","5","1","5","2","3","4","0","4","5","3","1","5","5","5","1","1","1","2","3","3","3","3","4","4","4","3","3","3","2","1","4","4","3","4","1","4","5","4","3","1","0","0","2","1","1","agree","284","","","","","","","","<div style=""font-size:60px;"">?</div>","76","32","1","0.8"
"image-keyboard-response","98","283740","0.0-11.0-0.32","9az90mt668upazr","1","60bec50b7af1ca8be684127b","22","04/1999","Single","English","Cantonese","Male","Asian","No","Undergraduate degree","Yes, Undergraduate studies","N/A","N/A","N/A","3","0","4","1","3","0.8833333179999999","stim/H230.jpg","76","76","0.6000000160000001","3","2","3","","3","1","3","2","2","3","3","4","1","2","0","4","4","5","1","5","5","1","5","2","3","4","0","4","5","3","1","5","5","5","1","1","1","2","3","3","3","3","4","4","4","3","3","3","2","1","4","4","3","4","1","4","5","4","3","1","0","0","2","1","1","agree","null","","","","","","","","stim/H030.jpg","null","","",""
"html-keyboard-response","99","284002","0.0-11.0-1.32","9az90mt668upazr","1","60bec50b7af1ca8be684127b","22","04/1999","Single","English","Cantonese","Male","Asian","No","Undergraduate degree","Yes, Undergraduate studies","N/A","N/A","N/A","3","0","4","1","3","0.8833333179999999","stim/H230.jpg","76","76","0.6000000160000001","3","2","3","","3","1","3","2","2","3","3","4","1","2","0","4","4","5","1","5","5","1","5","2","3","4","0","4","5","3","1","5","5","5","1","1","1","2","3","3","3","3","4","4","4","3","3","3","2","1","4","4","3","4","1","4","5","4","3","1","0","0","2","1","1","agree","261","","","","","","","","<div style=""font-size:60px;"">?</div>","76","33","1","0.8"
"image-keyboard-response","100","285020","0.0-11.0-0.33","9az90mt668upazr","1","60bec50b7af1ca8be684127b","22","04/1999","Single","English","Cantonese","Male","Asian","No","Undergraduate degree","Yes, Undergraduate studies","N/A","N/A","N/A","3","0","4","1","3","0.8833333179999999","stim/H230.jpg","76","76","0.6000000160000001","3","2","3","","3","1","3","2","2","3","3","4","1","2","0","4","4","5","1","5","5","1","5","2","3","4","0","4","5","3","1","5","5","5","1","1","1","2","3","3","3","3","4","4","4","3","3","3","2","1","4","4","3","4","1","4","5","4","3","1","0","0","2","1","1","agree","null","","","","","","","","stim/H290.jpg","null","","",""
"html-keyboard-response","101","285289","0.0-11.0-1.33","9az90mt668upazr","1","60bec50b7af1ca8be684127b","22","04/1999","Single","English","Cantonese","Male","Asian","No","Undergraduate degree","Yes, Undergraduate studies","N/A","N/A","N/A","3","0","4","1","3","0.8833333179999999","stim/H230.jpg","76","76","0.6000000160000001","3","2","3","","3","1","3","2","2","3","3","4","1","2","0","4","4","5","1","5","5","1","5","2","3","4","0","4","5","3","1","5","5","5","1","1","1","2","3","3","3","3","4","4","4","3","3","3","2","1","4","4","3","4","1","4","5","4","3","1","0","0","2","1","1","agree","268","","","","","","","","<div style=""font-size:60px;"">?</div>","76","34","1","0.8"
"image-keyboard-response","102","286302","0.0-11.0-0.34","9az90mt668upazr","1","60bec50b7af1ca8be684127b","22","04/1999","Single","English","Cantonese","Male","Asian","No","Undergraduate degree","Yes, Undergraduate studies","N/A","N/A","N/A","3","0","4","1","3","0.8833333179999999","stim/H230.jpg","76","76","0.6000000160000001","3","2","3","","3","1","3","2","2","3","3","4","1","2","0","4","4","5","1","5","5","1","5","2","3","4","0","4","5","3","1","5","5","5","1","1","1","2","3","3","3","3","4","4","4","3","3","3","2","1","4","4","3","4","1","4","5","4","3","1","0","0","2","1","1","agree","null","","","","","","","","stim/H160.jpg","null","","",""
"html-keyboard-response","103","286565","0.0-11.0-1.34","9az90mt668upazr","1","60bec50b7af1ca8be684127b","22","04/1999","Single","English","Cantonese","Male","Asian","No","Undergraduate degree","Yes, Undergraduate studies","N/A","N/A","N/A","3","0","4","1","3","0.8833333179999999","stim/H230.jpg","76","76","0.6000000160000001","3","2","3","","3","1","3","2","2","3","3","4","1","2","0","4","4","5","1","5","5","1","5","2","3","4","0","4","5","3","1","5","5","5","1","1","1","2","3","3","3","3","4","4","4","3","3","3","2","1","4","4","3","4","1","4","5","4","3","1","0","0","2","1","1","agree","263","","","","","","","","<div style=""font-size:60px;"">?</div>","76","35","1","0.8"
"image-keyboard-response","104","287575","0.0-11.0-0.35","9az90mt668upazr","1","60bec50b7af1ca8be684127b","22","04/1999","Single","English","Cantonese","Male","Asian","No","Undergraduate degree","Yes, Undergraduate studies","N/A","N/A","N/A","3","0","4","1","3","0.8833333179999999","stim/H230.jpg","76","76","0.6000000160000001","3","2","3","","3","1","3","2","2","3","3","4","1","2","0","4","4","5","1","5","5","1","5","2","3","4","0","4","5","3","1","5","5","5","1","1","1","2","3","3","3","3","4","4","4","3","3","3","2","1","4","4","3","4","1","4","5","4","3","1","0","0","2","1","1","agree","null","","","","","","","","stim/H190.jpg","null","","",""
"html-keyboard-response","105","287868","0.0-11.0-1.35","9az90mt668upazr","1","60bec50b7af1ca8be684127b","22","04/1999","Single","English","Cantonese","Male","Asian","No","Undergraduate degree","Yes, Undergraduate studies","N/A","N/A","N/A","3","0","4","1","3","0.8833333179999999","stim/H230.jpg","76","76","0.6000000160000001","3","2","3","","3","1","3","2","2","3","3","4","1","2","0","4","4","5","1","5","5","1","5","2","3","4","0","4","5","3","1","5","5","5","1","1","1","2","3","3","3","3","4","4","4","3","3","3","2","1","4","4","3","4","1","4","5","4","3","1","0","0","2","1","1","agree","291","","","","","","","","<div style=""font-size:60px;"">?</div>","76","36","1","0.8"
"image-keyboard-response","106","288885","0.0-11.0-0.36","9az90mt668upazr","1","60bec50b7af1ca8be684127b","22","04/1999","Single","English","Cantonese","Male","Asian","No","Undergraduate degree","Yes, Undergraduate studies","N/A","N/A","N/A","3","0","4","1","3","0.8833333179999999","stim/H230.jpg","76","76","0.6000000160000001","3","2","3","","3","1","3","2","2","3","3","4","1","2","0","4","4","5","1","5","5","1","5","2","3","4","0","4","5","3","1","5","5","5","1","1","1","2","3","3","3","3","4","4","4","3","3","3","2","1","4","4","3","4","1","4","5","4","3","1","0","0","2","1","1","agree","null","","","","","","","","stim/H300.jpg","null","","",""
"html-keyboard-response","107","289090","0.0-11.0-1.36","9az90mt668upazr","1","60bec50b7af1ca8be684127b","22","04/1999","Single","English","Cantonese","Male","Asian","No","Undergraduate degree","Yes, Undergraduate studies","N/A","N/A","N/A","3","0","4","1","3","0.8833333179999999","stim/H230.jpg","76","76","0.6000000160000001","3","2","3","","3","1","3","2","2","3","3","4","1","2","0","4","4","5","1","5","5","1","5","2","3","4","0","4","5","3","1","5","5","5","1","1","1","2","3","3","3","3","4","4","4","3","3","3","2","1","4","4","3","4","1","4","5","4","3","1","0","0","2","1","1","agree","206","","","","","","","","<div style=""font-size:60px;"">?</div>","76","37","1","0.8"
"image-keyboard-response","108","290117","0.0-11.0-0.37","9az90mt668upazr","1","60bec50b7af1ca8be684127b","22","04/1999","Single","English","Cantonese","Male","Asian","No","Undergraduate degree","Yes, Undergraduate studies","N/A","N/A","N/A","3","0","4","1","3","0.8833333179999999","stim/H230.jpg","76","76","0.6000000160000001","3","2","3","","3","1","3","2","2","3","3","4","1","2","0","4","4","5","1","5","5","1","5","2","3","4","0","4","5","3","1","5","5","5","1","1","1","2","3","3","3","3","4","4","4","3","3","3","2","1","4","4","3","4","1","4","5","4","3","1","0","0","2","1","1","agree","null","","","","","","","","stim/H180.jpg","null","","",""
"html-keyboard-response","109","290340","0.0-11.0-1.37","9az90mt668upazr","1","60bec50b7af1ca8be684127b","22","04/1999","Single","English","Cantonese","Male","Asian","No","Undergraduate degree","Yes, Undergraduate studies","N/A","N/A","N/A","3","0","4","1","3","0.8833333179999999","stim/H230.jpg","76","76","0.6000000160000001","3","2","3","","3","1","3","2","2","3","3","4","1","2","0","4","4","5","1","5","5","1","5","2","3","4","0","4","5","3","1","5","5","5","1","1","1","2","3","3","3","3","4","4","4","3","3","3","2","1","4","4","3","4","1","4","5","4","3","1","0","0","2","1","1","agree","223","","","","","","","","<div style=""font-size:60px;"">?</div>","76","38","1","0.8"
"image-keyboard-response","110","291371","0.0-11.0-0.38","9az90mt668upazr","1","60bec50b7af1ca8be684127b","22","04/1999","Single","English","Cantonese","Male","Asian","No","Undergraduate degree","Yes, Undergraduate studies","N/A","N/A","N/A","3","0","4","1","3","0.8833333179999999","stim/H230.jpg","76","76","0.6000000160000001","3","2","3","","3","1","3","2","2","3","3","4","1","2","0","4","4","5","1","5","5","1","5","2","3","4","0","4","5","3","1","5","5","5","1","1","1","2","3","3","3","3","4","4","4","3","3","3","2","1","4","4","3","4","1","4","5","4","3","1","0","0","2","1","1","agree","null","","","","","","","","stim/H130.jpg","null","","",""
"html-keyboard-response","111","291578","0.0-11.0-1.38","9az90mt668upazr","1","60bec50b7af1ca8be684127b","22","04/1999","Single","English","Cantonese","Male","Asian","No","Undergraduate degree","Yes, Undergraduate studies","N/A","N/A","N/A","3","0","4","1","3","0.8833333179999999","stim/H230.jpg","76","76","0.6000000160000001","3","2","3","","3","1","3","2","2","3","3","4","1","2","0","4","4","5","1","5","5","1","5","2","3","4","0","4","5","3","1","5","5","5","1","1","1","2","3","3","3","3","4","4","4","3","3","3","2","1","4","4","3","4","1","4","5","4","3","1","0","0","2","1","1","agree","206","","","","","","","","<div style=""font-size:60px;"">?</div>","76","39","1","0.8"
"image-keyboard-response","112","292603","0.0-11.0-0.39","9az90mt668upazr","1","60bec50b7af1ca8be684127b","22","04/1999","Single","English","Cantonese","Male","Asian","No","Undergraduate degree","Yes, Undergraduate studies","N/A","N/A","N/A","3","0","4","1","3","0.8833333179999999","stim/H230.jpg","76","76","0.6000000160000001","3","2","3","","3","1","3","2","2","3","3","4","1","2","0","4","4","5","1","5","5","1","5","2","3","4","0","4","5","3","1","5","5","5","1","1","1","2","3","3","3","3","4","4","4","3","3","3","2","1","4","4","3","4","1","4","5","4","3","1","0","0","2","1","1","agree","null","","","","","","","","stim/H210.jpg","null","","",""
"html-keyboard-response","113","292890","0.0-11.0-1.39","9az90mt668upazr","1","60bec50b7af1ca8be684127b","22","04/1999","Single","English","Cantonese","Male","Asian","No","Undergraduate degree","Yes, Undergraduate studies","N/A","N/A","N/A","3","0","4","1","3","0.8833333179999999","stim/H230.jpg","76","76","0.6000000160000001","3","2","3","","3","1","3","2","2","3","3","4","1","2","0","4","4","5","1","5","5","1","5","2","3","4","0","4","5","3","1","5","5","5","1","1","1","2","3","3","3","3","4","4","4","3","3","3","2","1","4","4","3","4","1","4","5","4","3","1","0","0","2","1","1","agree","287","","","","","","","","<div style=""font-size:60px;"">?</div>","76","40","1","0.8"
"image-keyboard-response","114","293915","0.0-11.0-0.40","9az90mt668upazr","1","60bec50b7af1ca8be684127b","22","04/1999","Single","English","Cantonese","Male","Asian","No","Undergraduate degree","Yes, Undergraduate studies","N/A","N/A","N/A","3","0","4","1","3","0.8833333179999999","stim/H230.jpg","76","76","0.6000000160000001","3","2","3","","3","1","3","2","2","3","3","4","1","2","0","4","4","5","1","5","5","1","5","2","3","4","0","4","5","3","1","5","5","5","1","1","1","2","3","3","3","3","4","4","4","3","3","3","2","1","4","4","3","4","1","4","5","4","3","1","0","0","2","1","1","agree","null","","","","","","","","stim/T190.jpg","null","","",""
"html-keyboard-response","115","294165","0.0-11.0-1.40","9az90mt668upazr","1","60bec50b7af1ca8be684127b","22","04/1999","Single","English","Cantonese","Male","Asian","No","Undergraduate degree","Yes, Undergraduate studies","N/A","N/A","N/A","3","0","4","1","3","0.8833333179999999","stim/H230.jpg","76","76","0.6000000160000001","3","2","3","","3","1","3","2","2","3","3","4","1","2","0","4","4","5","1","5","5","1","5","2","3","4","0","4","5","3","1","5","5","5","1","1","1","2","3","3","3","3","4","4","4","3","3","3","2","1","4","4","3","4","1","4","5","4","3","1","0","0","2","1","1","agree","248","","","","","","","","<div style=""font-size:60px;"">?</div>","65","41","1","0.8"
"image-keyboard-response","116","295181","0.0-11.0-0.41","9az90mt668upazr","1","60bec50b7af1ca8be684127b","22","04/1999","Single","English","Cantonese","Male","Asian","No","Undergraduate degree","Yes, Undergraduate studies","N/A","N/A","N/A","3","0","4","1","3","0.8833333179999999","stim/H230.jpg","76","76","0.6000000160000001","3","2","3","","3","1","3","2","2","3","3","4","1","2","0","4","4","5","1","5","5","1","5","2","3","4","0","4","5","3","1","5","5","5","1","1","1","2","3","3","3","3","4","4","4","3","3","3","2","1","4","4","3","4","1","4","5","4","3","1","0","0","2","1","1","agree","null","","","","","","","","stim/H240.jpg","null","","",""
"html-keyboard-response","117","295403","0.0-11.0-1.41","9az90mt668upazr","1","60bec50b7af1ca8be684127b","22","04/1999","Single","English","Cantonese","Male","Asian","No","Undergraduate degree","Yes, Undergraduate studies","N/A","N/A","N/A","3","0","4","1","3","0.8833333179999999","stim/H230.jpg","76","76","0.6000000160000001","3","2","3","","3","1","3","2","2","3","3","4","1","2","0","4","4","5","1","5","5","1","5","2","3","4","0","4","5","3","1","5","5","5","1","1","1","2","3","3","3","3","4","4","4","3","3","3","2","1","4","4","3","4","1","4","5","4","3","1","0","0","2","1","1","agree","220","","","","","","","","<div style=""font-size:60px;"">?</div>","76","42","1","0.8"
"image-keyboard-response","118","296431","0.0-11.0-0.42","9az90mt668upazr","1","60bec50b7af1ca8be684127b","22","04/1999","Single","English","Cantonese","Male","Asian","No","Undergraduate degree","Yes, Undergraduate studies","N/A","N/A","N/A","3","0","4","1","3","0.8833333179999999","stim/H230.jpg","76","76","0.6000000160000001","3","2","3","","3","1","3","2","2","3","3","4","1","2","0","4","4","5","1","5","5","1","5","2","3","4","0","4","5","3","1","5","5","5","1","1","1","2","3","3","3","3","4","4","4","3","3","3","2","1","4","4","3","4","1","4","5","4","3","1","0","0","2","1","1","agree","null","","","","","","","","stim/T100.jpg","null","","",""
"html-keyboard-response","119","296677","0.0-11.0-1.42","9az90mt668upazr","1","60bec50b7af1ca8be684127b","22","04/1999","Single","English","Cantonese","Male","Asian","No","Undergraduate degree","Yes, Undergraduate studies","N/A","N/A","N/A","3","0","4","1","3","0.8833333179999999","stim/H230.jpg","76","76","0.6000000160000001","3","2","3","","3","1","3","2","2","3","3","4","1","2","0","4","4","5","1","5","5","1","5","2","3","4","0","4","5","3","1","5","5","5","1","1","1","2","3","3","3","3","4","4","4","3","3","3","2","1","4","4","3","4","1","4","5","4","3","1","0","0","2","1","1","agree","246","","","","","","","","<div style=""font-size:60px;"">?</div>","65","43","1","0.8"
"image-keyboard-response","120","297689","0.0-11.0-0.43","9az90mt668upazr","1","60bec50b7af1ca8be684127b","22","04/1999","Single","English","Cantonese","Male","Asian","No","Undergraduate degree","Yes, Undergraduate studies","N/A","N/A","N/A","3","0","4","1","3","0.8833333179999999","stim/H230.jpg","76","76","0.6000000160000001","3","2","3","","3","1","3","2","2","3","3","4","1","2","0","4","4","5","1","5","5","1","5","2","3","4","0","4","5","3","1","5","5","5","1","1","1","2","3","3","3","3","4","4","4","3","3","3","2","1","4","4","3","4","1","4","5","4","3","1","0","0","2","1","1","agree","null","","","","","","","","stim/H180.jpg","null","","",""
"html-keyboard-response","121","297977","0.0-11.0-1.43","9az90mt668upazr","1","60bec50b7af1ca8be684127b","22","04/1999","Single","English","Cantonese","Male","Asian","No","Undergraduate degree","Yes, Undergraduate studies","N/A","N/A","N/A","3","0","4","1","3","0.8833333179999999","stim/H230.jpg","76","76","0.6000000160000001","3","2","3","","3","1","3","2","2","3","3","4","1","2","0","4","4","5","1","5","5","1","5","2","3","4","0","4","5","3","1","5","5","5","1","1","1","2","3","3","3","3","4","4","4","3","3","3","2","1","4","4","3","4","1","4","5","4","3","1","0","0","2","1","1","agree","288","","","","","","","","<div style=""font-size:60px;"">?</div>","76","44","1","0.8"
"image-keyboard-response","122","299003","0.0-11.0-0.44","9az90mt668upazr","1","60bec50b7af1ca8be684127b","22","04/1999","Single","English","Cantonese","Male","Asian","No","Undergraduate degree","Yes, Undergraduate studies","N/A","N/A","N/A","3","0","4","1","3","0.8833333179999999","stim/H230.jpg","76","76","0.6000000160000001","3","2","3","","3","1","3","2","2","3","3","4","1","2","0","4","4","5","1","5","5","1","5","2","3","4","0","4","5","3","1","5","5","5","1","1","1","2","3","3","3","3","4","4","4","3","3","3","2","1","4","4","3","4","1","4","5","4","3","1","0","0","2","1","1","agree","null","","","","","","","","stim/T140.jpg","null","","",""
"html-keyboard-response","123","299265","0.0-11.0-1.44","9az90mt668upazr","1","60bec50b7af1ca8be684127b","22","04/1999","Single","English","Cantonese","Male","Asian","No","Undergraduate degree","Yes, Undergraduate studies","N/A","N/A","N/A","3","0","4","1","3","0.8833333179999999","stim/H230.jpg","76","76","0.6000000160000001","3","2","3","","3","1","3","2","2","3","3","4","1","2","0","4","4","5","1","5","5","1","5","2","3","4","0","4","5","3","1","5","5","5","1","1","1","2","3","3","3","3","4","4","4","3","3","3","2","1","4","4","3","4","1","4","5","4","3","1","0","0","2","1","1","agree","263","","","","","","","","<div style=""font-size:60px;"">?</div>","65","45","1","0.8"
"image-keyboard-response","124","300284","0.0-11.0-0.45","9az90mt668upazr","1","60bec50b7af1ca8be684127b","22","04/1999","Single","English","Cantonese","Male","Asian","No","Undergraduate degree","Yes, Undergraduate studies","N/A","N/A","N/A","3","0","4","1","3","0.8833333179999999","stim/H230.jpg","76","76","0.6000000160000001","3","2","3","","3","1","3","2","2","3","3","4","1","2","0","4","4","5","1","5","5","1","5","2","3","4","0","4","5","3","1","5","5","5","1","1","1","2","3","3","3","3","4","4","4","3","3","3","2","1","4","4","3","4","1","4","5","4","3","1","0","0","2","1","1","agree","null","","","","","","","","stim/H290.jpg","null","","",""
"html-keyboard-response","125","300542","0.0-11.0-1.45","9az90mt668upazr","1","60bec50b7af1ca8be684127b","22","04/1999","Single","English","Cantonese","Male","Asian","No","Undergraduate degree","Yes, Undergraduate studies","N/A","N/A","N/A","3","0","4","1","3","0.8833333179999999","stim/H230.jpg","76","76","0.6000000160000001","3","2","3","","3","1","3","2","2","3","3","4","1","2","0","4","4","5","1","5","5","1","5","2","3","4","0","4","5","3","1","5","5","5","1","1","1","2","3","3","3","3","4","4","4","3","3","3","2","1","4","4","3","4","1","4","5","4","3","1","0","0","2","1","1","agree","257","","","","","","","","<div style=""font-size:60px;"">?</div>","76","46","1","0.8"
"image-keyboard-response","126","301565","0.0-11.0-0.46","9az90mt668upazr","1","60bec50b7af1ca8be684127b","22","04/1999","Single","English","Cantonese","Male","Asian","No","Undergraduate degree","Yes, Undergraduate studies","N/A","N/A","N/A","3","0","4","1","3","0.8833333179999999","stim/H230.jpg","76","76","0.6000000160000001","3","2","3","","3","1","3","2","2","3","3","4","1","2","0","4","4","5","1","5","5","1","5","2","3","4","0","4","5","3","1","5","5","5","1","1","1","2","3","3","3","3","4","4","4","3","3","3","2","1","4","4","3","4","1","4","5","4","3","1","0","0","2","1","1","agree","null","","","","","","","","stim/H300.jpg","null","","",""
"html-keyboard-response","127","301802","0.0-11.0-1.46","9az90mt668upazr","1","60bec50b7af1ca8be684127b","22","04/1999","Single","English","Cantonese","Male","Asian","No","Undergraduate degree","Yes, Undergraduate studies","N/A","N/A","N/A","3","0","4","1","3","0.8833333179999999","stim/H230.jpg","76","76","0.6000000160000001","3","2","3","","3","1","3","2","2","3","3","4","1","2","0","4","4","5","1","5","5","1","5","2","3","4","0","4","5","3","1","5","5","5","1","1","1","2","3","3","3","3","4","4","4","3","3","3","2","1","4","4","3","4","1","4","5","4","3","1","0","0","2","1","1","agree","237","","","","","","","","<div style=""font-size:60px;"">?</div>","76","47","1","0.8"
"image-keyboard-response","128","302830","0.0-11.0-0.47","9az90mt668upazr","1","60bec50b7af1ca8be684127b","22","04/1999","Single","English","Cantonese","Male","Asian","No","Undergraduate degree","Yes, Undergraduate studies","N/A","N/A","N/A","3","0","4","1","3","0.8833333179999999","stim/H230.jpg","76","76","0.6000000160000001","3","2","3","","3","1","3","2","2","3","3","4","1","2","0","4","4","5","1","5","5","1","5","2","3","4","0","4","5","3","1","5","5","5","1","1","1","2","3","3","3","3","4","4","4","3","3","3","2","1","4","4","3","4","1","4","5","4","3","1","0","0","2","1","1","agree","null","","","","","","","","stim/H160.jpg","null","","",""
"html-keyboard-response","129","303053","0.0-11.0-1.47","9az90mt668upazr","1","60bec50b7af1ca8be684127b","22","04/1999","Single","English","Cantonese","Male","Asian","No","Undergraduate degree","Yes, Undergraduate studies","N/A","N/A","N/A","3","0","4","1","3","0.8833333179999999","stim/H230.jpg","76","76","0.6000000160000001","3","2","3","","3","1","3","2","2","3","3","4","1","2","0","4","4","5","1","5","5","1","5","2","3","4","0","4","5","3","1","5","5","5","1","1","1","2","3","3","3","3","4","4","4","3","3","3","2","1","4","4","3","4","1","4","5","4","3","1","0","0","2","1","1","agree","222","","","","","","","","<div style=""font-size:60px;"">?</div>","76","48","1","0.8"
"image-keyboard-response","130","304067","0.0-11.0-0.48","9az90mt668upazr","1","60bec50b7af1ca8be684127b","22","04/1999","Single","English","Cantonese","Male","Asian","No","Undergraduate degree","Yes, Undergraduate studies","N/A","N/A","N/A","3","0","4","1","3","0.8833333179999999","stim/H230.jpg","76","76","0.6000000160000001","3","2","3","","3","1","3","2","2","3","3","4","1","2","0","4","4","5","1","5","5","1","5","2","3","4","0","4","5","3","1","5","5","5","1","1","1","2","3","3","3","3","4","4","4","3","3","3","2","1","4","4","3","4","1","4","5","4","3","1","0","0","2","1","1","agree","null","","","","","","","","stim/H040.jpg","null","","",""
"html-keyboard-response","131","304328","0.0-11.0-1.48","9az90mt668upazr","1","60bec50b7af1ca8be684127b","22","04/1999","Single","English","Cantonese","Male","Asian","No","Undergraduate degree","Yes, Undergraduate studies","N/A","N/A","N/A","3","0","4","1","3","0.8833333179999999","stim/H230.jpg","76","76","0.6000000160000001","3","2","3","","3","1","3","2","2","3","3","4","1","2","0","4","4","5","1","5","5","1","5","2","3","4","0","4","5","3","1","5","5","5","1","1","1","2","3","3","3","3","4","4","4","3","3","3","2","1","4","4","3","4","1","4","5","4","3","1","0","0","2","1","1","agree","260","","","","","","","","<div style=""font-size:60px;"">?</div>","65","49","1","0.8"
"image-keyboard-response","132","305338","0.0-11.0-0.49","9az90mt668upazr","1","60bec50b7af1ca8be684127b","22","04/1999","Single","English","Cantonese","Male","Asian","No","Undergraduate degree","Yes, Undergraduate studies","N/A","N/A","N/A","3","0","4","1","3","0.8833333179999999","stim/H230.jpg","76","76","0.6000000160000001","3","2","3","","3","1","3","2","2","3","3","4","1","2","0","4","4","5","1","5","5","1","5","2","3","4","0","4","5","3","1","5","5","5","1","1","1","2","3","3","3","3","4","4","4","3","3","3","2","1","4","4","3","4","1","4","5","4","3","1","0","0","2","1","1","agree","null","","","","","","","","stim/H170.jpg","null","","",""
"html-keyboard-response","133","305579","0.0-11.0-1.49","9az90mt668upazr","1","60bec50b7af1ca8be684127b","22","04/1999","Single","English","Cantonese","Male","Asian","No","Undergraduate degree","Yes, Undergraduate studies","N/A","N/A","N/A","3","0","4","1","3","0.8833333179999999","stim/H230.jpg","76","76","0.6000000160000001","3","2","3","","3","1","3","2","2","3","3","4","1","2","0","4","4","5","1","5","5","1","5","2","3","4","0","4","5","3","1","5","5","5","1","1","1","2","3","3","3","3","4","4","4","3","3","3","2","1","4","4","3","4","1","4","5","4","3","1","0","0","2","1","1","agree","240","","","","","","","","<div style=""font-size:60px;"">?</div>","76","50","1","0.8"
"html-keyboard-response","134","306903","0.0-12.0","9az90mt668upazr","1","60bec50b7af1ca8be684127b","22","04/1999","Single","English","Cantonese","Male","Asian","No","Undergraduate degree","Yes, Undergraduate studies","N/A","N/A","N/A","3","0","4","1","3","0.8833333179999999","stim/H230.jpg","76","76","0.6000000160000001","3","2","3","","3","1","3","2","2","3","3","4","1","2","0","4","4","5","1","5","5","1","5","2","3","4","0","4","5","3","1","5","5","5","1","1","1","2","3","3","3","3","4","4","4","3","3","3","2","1","4","4","3","4","1","4","5","4","3","1","0","0","2","1","1","agree","820","","","","","","","","<p>Block 2</p><p>Press SPACE to continue.</p>","32","","",""
"image-keyboard-response","135","308428","0.0-13.0-0.0","9az90mt668upazr","1","60bec50b7af1ca8be684127b","22","04/1999","Single","English","Cantonese","Male","Asian","No","Undergraduate degree","Yes, Undergraduate studies","N/A","N/A","N/A","3","0","4","1","3","0.8833333179999999","stim/H230.jpg","76","76","0.6000000160000001","3","2","3","","3","1","3","2","2","3","3","4","1","2","0","4","4","5","1","5","5","1","5","2","3","4","0","4","5","3","1","5","5","5","1","1","1","2","3","3","3","3","4","4","4","3","3","3","2","1","4","4","3","4","1","4","5","4","3","1","0","0","2","1","1","agree","null","","","","","","","","stim/H190.jpg","null","","",""
"html-keyboard-response","136","308666","0.0-13.0-1.0","9az90mt668upazr","1","60bec50b7af1ca8be684127b","22","04/1999","Single","English","Cantonese","Male","Asian","No","Undergraduate degree","Yes, Undergraduate studies","N/A","N/A","N/A","3","0","4","1","3","0.8833333179999999","stim/H230.jpg","76","76","0.6000000160000001","3","2","3","","3","1","3","2","2","3","3","4","1","2","0","4","4","5","1","5","5","1","5","2","3","4","0","4","5","3","1","5","5","5","1","1","1","2","3","3","3","3","4","4","4","3","3","3","2","1","4","4","3","4","1","4","5","4","3","1","0","0","2","1","1","agree","237","","","","","","","","<div style=""font-size:60px;"">?</div>","76","1","2","0.8"
"image-keyboard-response","137","309683","0.0-13.0-0.1","9az90mt668upazr","1","60bec50b7af1ca8be684127b","22","04/1999","Single","English","Cantonese","Male","Asian","No","Undergraduate degree","Yes, Undergraduate studies","N/A","N/A","N/A","3","0","4","1","3","0.8833333179999999","stim/H230.jpg","76","76","0.6000000160000001","3","2","3","","3","1","3","2","2","3","3","4","1","2","0","4","4","5","1","5","5","1","5","2","3","4","0","4","5","3","1","5","5","5","1","1","1","2","3","3","3","3","4","4","4","3","3","3","2","1","4","4","3","4","1","4","5","4","3","1","0","0","2","1","1","agree","null","","","","","","","","stim/T250.jpg","null","","",""
"html-keyboard-response","138","309916","0.0-13.0-1.1","9az90mt668upazr","1","60bec50b7af1ca8be684127b","22","04/1999","Single","English","Cantonese","Male","Asian","No","Undergraduate degree","Yes, Undergraduate studies","N/A","N/A","N/A","3","0","4","1","3","0.8833333179999999","stim/H230.jpg","76","76","0.6000000160000001","3","2","3","","3","1","3","2","2","3","3","4","1","2","0","4","4","5","1","5","5","1","5","2","3","4","0","4","5","3","1","5","5","5","1","1","1","2","3","3","3","3","4","4","4","3","3","3","2","1","4","4","3","4","1","4","5","4","3","1","0","0","2","1","1","agree","232","","","","","","","","<div style=""font-size:60px;"">?</div>","65","2","2","0.8"
"image-keyboard-response","139","310938","0.0-13.0-0.2","9az90mt668upazr","1","60bec50b7af1ca8be684127b","22","04/1999","Single","English","Cantonese","Male","Asian","No","Undergraduate degree","Yes, Undergraduate studies","N/A","N/A","N/A","3","0","4","1","3","0.8833333179999999","stim/H230.jpg","76","76","0.6000000160000001","3","2","3","","3","1","3","2","2","3","3","4","1","2","0","4","4","5","1","5","5","1","5","2","3","4","0","4","5","3","1","5","5","5","1","1","1","2","3","3","3","3","4","4","4","3","3","3","2","1","4","4","3","4","1","4","5","4","3","1","0","0","2","1","1","agree","null","","","","","","","","stim/T060.jpg","null","","",""
"html-keyboard-response","140","311177","0.0-13.0-1.2","9az90mt668upazr","1","60bec50b7af1ca8be684127b","22","04/1999","Single","English","Cantonese","Male","Asian","No","Undergraduate degree","Yes, Undergraduate studies","N/A","N/A","N/A","3","0","4","1","3","0.8833333179999999","stim/H230.jpg","76","76","0.6000000160000001","3","2","3","","3","1","3","2","2","3","3","4","1","2","0","4","4","5","1","5","5","1","5","2","3","4","0","4","5","3","1","5","5","5","1","1","1","2","3","3","3","3","4","4","4","3","3","3","2","1","4","4","3","4","1","4","5","4","3","1","0","0","2","1","1","agree","238","","","","","","","","<div style=""font-size:60px;"">?</div>","65","3","2","0.8"
"image-keyboard-response","141","312190","0.0-13.0-0.3","9az90mt668upazr","1","60bec50b7af1ca8be684127b","22","04/1999","Single","English","Cantonese","Male","Asian","No","Undergraduate degree","Yes, Undergraduate studies","N/A","N/A","N/A","3","0","4","1","3","0.8833333179999999","stim/H230.jpg","76","76","0.6000000160000001","3","2","3","","3","1","3","2","2","3","3","4","1","2","0","4","4","5","1","5","5","1","5","2","3","4","0","4","5","3","1","5","5","5","1","1","1","2","3","3","3","3","4","4","4","3","3","3","2","1","4","4","3","4","1","4","5","4","3","1","0","0","2","1","1","agree","null","","","","","","","","stim/T180.jpg","null","","",""
"html-keyboard-response","142","312402","0.0-13.0-1.3","9az90mt668upazr","1","60bec50b7af1ca8be684127b","22","04/1999","Single","English","Cantonese","Male","Asian","No","Undergraduate degree","Yes, Undergraduate studies","N/A","N/A","N/A","3","0","4","1","3","0.8833333179999999","stim/H230.jpg","76","76","0.6000000160000001","3","2","3","","3","1","3","2","2","3","3","4","1","2","0","4","4","5","1","5","5","1","5","2","3","4","0","4","5","3","1","5","5","5","1","1","1","2","3","3","3","3","4","4","4","3","3","3","2","1","4","4","3","4","1","4","5","4","3","1","0","0","2","1","1","agree","212","","","","","","","","<div style=""font-size:60px;"">?</div>","65","4","2","0.8"
"image-keyboard-response","143","313412","0.0-13.0-0.4","9az90mt668upazr","1","60bec50b7af1ca8be684127b","22","04/1999","Single","English","Cantonese","Male","Asian","No","Undergraduate degree","Yes, Undergraduate studies","N/A","N/A","N/A","3","0","4","1","3","0.8833333179999999","stim/H230.jpg","76","76","0.6000000160000001","3","2","3","","3","1","3","2","2","3","3","4","1","2","0","4","4","5","1","5","5","1","5","2","3","4","0","4","5","3","1","5","5","5","1","1","1","2","3","3","3","3","4","4","4","3","3","3","2","1","4","4","3","4","1","4","5","4","3","1","0","0","2","1","1","agree","null","","","","","","","","stim/H090.jpg","null","","",""
"html-keyboard-response","144","313652","0.0-13.0-1.4","9az90mt668upazr","1","60bec50b7af1ca8be684127b","22","04/1999","Single","English","Cantonese","Male","Asian","No","Undergraduate degree","Yes, Undergraduate studies","N/A","N/A","N/A","3","0","4","1","3","0.8833333179999999","stim/H230.jpg","76","76","0.6000000160000001","3","2","3","","3","1","3","2","2","3","3","4","1","2","0","4","4","5","1","5","5","1","5","2","3","4","0","4","5","3","1","5","5","5","1","1","1","2","3","3","3","3","4","4","4","3","3","3","2","1","4","4","3","4","1","4","5","4","3","1","0","0","2","1","1","agree","238","","","","","","","","<div style=""font-size:60px;"">?</div>","76","5","2","0.8"
"image-keyboard-response","145","314662","0.0-13.0-0.5","9az90mt668upazr","1","60bec50b7af1ca8be684127b","22","04/1999","Single","English","Cantonese","Male","Asian","No","Undergraduate degree","Yes, Undergraduate studies","N/A","N/A","N/A","3","0","4","1","3","0.8833333179999999","stim/H230.jpg","76","76","0.6000000160000001","3","2","3","","3","1","3","2","2","3","3","4","1","2","0","4","4","5","1","5","5","1","5","2","3","4","0","4","5","3","1","5","5","5","1","1","1","2","3","3","3","3","4","4","4","3","3","3","2","1","4","4","3","4","1","4","5","4","3","1","0","0","2","1","1","agree","null","","","","","","","","stim/H140.jpg","null","","",""
