"trial_type","trial_index","time_elapsed","internal_node_id","subject","condition","ID","age","dob","marital","natlang","olang","gender","ethnicity","mental_check","educ_l","educ_c","mental","mentdrug","mentpos","sesparent","sesstudent","sesladder","educ_hs","educ_ce","s1self","chosenbody","s1selfjudge","s2selfjudge","s2self","sspc_01","sspc_02","pas_01","pas_02","pas_03","pas_04","pas_05","pas_06","pas_07","pas_08","pas_09","pas_10","pas_11","pas_12","pas_13","pas_14","contact_01","contact_02","contact_03","contact_04","contact_05","contact_06","contact_07","contact_08","contact_09","idnd_01","idnd_02","idnd_03","idnd_04","idnd_05","idnd_06","idnd_07","idnd_08","catch_01","adig_01","adig_02","adig_03","plcs_01","plcs_02","plcs_03","plcs_04","plcs_05","plcs_06","plcs_07","plcs_08","plcs_09","plcs_10","plcs_11","plcs_12","catch_02","wwwp_01","wwwp_02","wwwp_03","wwwp_04","wwwp_05","wwwp_06","wwwp_07","wwwp_08","wwwp_09","lsns_fam_1","lsns_fam_2","lsns_fam_3","lsns_fri_1","lsns_fri_2","lsns_fri_3","debrief","rt","url","success","view_history","responses","question_order","final_value","start_value","stimulus","key_press","trial","block","freq"
"pavlovia","0","10","0.0-0.0","3y1zorqe7jrzdw1","1","60fda481a96c200924ca0ea9","20","04/2001","single","english","N/A","Female","Hispanic or Latino or Spanish Origin of any race","No","CEGEP, non-university college, trade school or equivalent","Yes, but not at a university","N/A","N/A","N/A","9","1","5","2","1","0.4666666880000001","stim/T020.jpg","76","76","0.28333334200000004","3","1","2","","2","0","3","2","3","2","3","3","2","3","1","2","2","2","3","5","5","4","0","0","0","3","0","4","2","4","1","3","2","5","2","0","0","1","2","3","4","3","4","1","3","3","1","3","6","1","5","5","5","3","3","4","5","5","2","4","4","1","1","0","0","agree","","","","","","","","","","","","",""
"external-html","1","272599","0.0-1.0","3y1zorqe7jrzdw1","1","60fda481a96c200924ca0ea9","20","04/2001","single","english","N/A","Female","Hispanic or Latino or Spanish Origin of any race","No","CEGEP, non-university college, trade school or equivalent","Yes, but not at a university","N/A","N/A","N/A","9","1","5","2","1","0.4666666880000001","stim/T020.jpg","76","76","0.28333334200000004","3","1","2","","2","0","3","2","3","2","3","3","2","3","1","2","2","2","3","5","5","4","0","0","0","3","0","4","2","4","1","3","2","5","2","0","0","1","2","3","4","3","4","1","3","3","1","3","6","1","5","5","5","3","3","4","5","5","2","4","4","1","1","0","0","agree","272412.5","sub/html/consent.html","","","","","","","","","","",""
"fullscreen","2","275705","0.0-2.0","3y1zorqe7jrzdw1","1","60fda481a96c200924ca0ea9","20","04/2001","single","english","N/A","Female","Hispanic or Latino or Spanish Origin of any race","No","CEGEP, non-university college, trade school or equivalent","Yes, but not at a university","N/A","N/A","N/A","9","1","5","2","1","0.4666666880000001","stim/T020.jpg","76","76","0.28333334200000004","3","1","2","","2","0","3","2","3","2","3","3","2","3","1","2","2","2","3","5","5","4","0","0","0","3","0","4","2","4","1","3","2","5","2","0","0","1","2","3","4","3","4","1","3","3","1","3","6","1","5","5","5","3","3","4","5","5","2","4","4","1","1","0","0","agree","","","true","","","","","","","","","",""
"instructions","3","294010","0.0-3.0","3y1zorqe7jrzdw1","1","60fda481a96c200924ca0ea9","20","04/2001","single","english","N/A","Female","Hispanic or Latino or Spanish Origin of any race","No","CEGEP, non-university college, trade school or equivalent","Yes, but not at a university","N/A","N/A","N/A","9","1","5","2","1","0.4666666880000001","stim/T020.jpg","76","76","0.28333334200000004","3","1","2","","2","0","3","2","3","2","3","3","2","3","1","2","2","2","3","5","5","4","0","0","0","3","0","4","2","4","1","3","2","5","2","0","0","1","2","3","4","3","4","1","3","3","1","3","6","1","5","5","5","3","3","4","5","5","2","4","4","1","1","0","0","agree","18299.80000001192","","","[{""page_index"":0,""viewing_time"":5960.199999988079},{""page_index"":1,""viewing_time"":12338.300000011921}]","","","","","","","","",""
"survey-text","4","365085","0.0-4.0-0.0","3y1zorqe7jrzdw1","1","60fda481a96c200924ca0ea9","20","04/2001","single","english","N/A","Female","Hispanic or Latino or Spanish Origin of any race","No","CEGEP, non-university college, trade school or equivalent","Yes, but not at a university","N/A","N/A","N/A","9","1","5","2","1","0.4666666880000001","stim/T020.jpg","76","76","0.28333334200000004","3","1","2","","2","0","3","2","3","2","3","3","2","3","1","2","2","2","3","5","5","4","0","0","0","3","0","4","2","4","1","3","2","5","2","0","0","1","2","3","4","3","4","1","3","3","1","3","6","1","5","5","5","3","3","4","5","5","2","4","4","1","1","0","0","agree","71059.90000003576","","","","{""ID"":""60fda481a96c200924ca0ea9"",""age"":""20"",""dob"":""04/2001"",""marital"":""single"",""natlang"":""english"",""olang"":""N/A""}","","","","","","","",""
"survey-multi-choice","5","420976","0.0-4.0-1.0","3y1zorqe7jrzdw1","1","60fda481a96c200924ca0ea9","20","04/2001","single","english","N/A","Female","Hispanic or Latino or Spanish Origin of any race","No","CEGEP, non-university college, trade school or equivalent","Yes, but not at a university","N/A","N/A","N/A","9","1","5","2","1","0.4666666880000001","stim/T020.jpg","76","76","0.28333334200000004","3","1","2","","2","0","3","2","3","2","3","3","2","3","1","2","2","2","3","5","5","4","0","0","0","3","0","4","2","4","1","3","2","5","2","0","0","1","2","3","4","3","4","1","3","3","1","3","6","1","5","5","5","3","3","4","5","5","2","4","4","1","1","0","0","agree","55878.40000003576","","","","{""gender"":""Female"",""ethnicity"":""Hispanic or Latino or Spanish Origin of any race"",""mental_check"":""No"",""educ_l"":""CEGEP, non-university college, trade school or equivalent"",""educ_c"":""Yes, but not at a university""}","[0,1,2,3,4]","","","","","","",""
"survey-text","6","460328","0.0-4.0-2.0","3y1zorqe7jrzdw1","1","60fda481a96c200924ca0ea9","20","04/2001","single","english","N/A","Female","Hispanic or Latino or Spanish Origin of any race","No","CEGEP, non-university college, trade school or equivalent","Yes, but not at a university","N/A","N/A","N/A","9","1","5","2","1","0.4666666880000001","stim/T020.jpg","76","76","0.28333334200000004","3","1","2","","2","0","3","2","3","2","3","3","2","3","1","2","2","2","3","5","5","4","0","0","0","3","0","4","2","4","1","3","2","5","2","0","0","1","2","3","4","3","4","1","3","3","1","3","6","1","5","5","5","3","3","4","5","5","2","4","4","1","1","0","0","agree","39343.90000003576","","","","{""mental"":""N/A"",""mentdrug"":""N/A"",""mentpos"":""N/A""}","","","","","","","",""
"survey-likert","7","577919","0.0-4.0-3.0","3y1zorqe7jrzdw1","1","60fda481a96c200924ca0ea9","20","04/2001","single","english","N/A","Female","Hispanic or Latino or Spanish Origin of any race","No","CEGEP, non-university college, trade school or equivalent","Yes, but not at a university","N/A","N/A","N/A","9","1","5","2","1","0.4666666880000001","stim/T020.jpg","76","76","0.28333334200000004","3","1","2","","2","0","3","2","3","2","3","3","2","3","1","2","2","2","3","5","5","4","0","0","0","3","0","4","2","4","1","3","2","5","2","0","0","1","2","3","4","3","4","1","3","3","1","3","6","1","5","5","5","3","3","4","5","5","2","4","4","1","1","0","0","agree","117579.19999998808","","","","{""sesparent"":9,""sesstudent"":1,""sesladder"":5}","[0,1,2]","","","","","","",""
"survey-likert","8","607240","0.0-4.0-4.0","3y1zorqe7jrzdw1","1","60fda481a96c200924ca0ea9","20","04/2001","single","english","N/A","Female","Hispanic or Latino or Spanish Origin of any race","No","CEGEP, non-university college, trade school or equivalent","Yes, but not at a university","N/A","N/A","N/A","9","1","5","2","1","0.4666666880000001","stim/T020.jpg","76","76","0.28333334200000004","3","1","2","","2","0","3","2","3","2","3","3","2","3","1","2","2","2","3","5","5","4","0","0","0","3","0","4","2","4","1","3","2","5","2","0","0","1","2","3","4","3","4","1","3","3","1","3","6","1","5","5","5","3","3","4","5","5","2","4","4","1","1","0","0","agree","29315.299999952316","","","","{""educ_hs"":2,""educ_ce"":2}","[0,1]","","","","","","",""
"reconstruction","9","661533","0.0-5.0","3y1zorqe7jrzdw1","1","60fda481a96c200924ca0ea9","20","04/2001","single","english","N/A","Female","Hispanic or Latino or Spanish Origin of any race","No","CEGEP, non-university college, trade school or equivalent","Yes, but not at a university","N/A","N/A","N/A","9","1","5","2","1","0.4666666880000001","stim/T020.jpg","76","76","0.28333334200000004","3","1","2","","2","0","3","2","3","2","3","3","2","3","1","2","2","2","3","5","5","4","0","0","0","3","0","4","2","4","1","3","2","5","2","0","0","1","2","3","4","3","4","1","3","3","1","3","6","1","5","5","5","3","3","4","5","5","2","4","4","1","1","0","0","agree","54287.200000047684","","","","","","0.4666666880000001","0.5","","","","",""
"image-keyboard-response","10","691858","0.0-6.0","3y1zorqe7jrzdw1","1","60fda481a96c200924ca0ea9","20","04/2001","single","english","N/A","Female","Hispanic or Latino or Spanish Origin of any race","No","CEGEP, non-university college, trade school or equivalent","Yes, but not at a university","N/A","N/A","N/A","9","1","5","2","1","0.4666666880000001","stim/T020.jpg","76","76","0.28333334200000004","3","1","2","","2","0","3","2","3","2","3","3","2","3","1","2","2","2","3","5","5","4","0","0","0","3","0","4","2","4","1","3","2","5","2","0","0","1","2","3","4","3","4","1","3","3","1","3","6","1","5","5","5","3","3","4","5","5","2","4","4","1","1","0","0","agree","30321.100000023842","","","","","","","","stim/T020.jpg","76","","",""
"instructions","11","846964","0.0-7.0","3y1zorqe7jrzdw1","1","60fda481a96c200924ca0ea9","20","04/2001","single","english","N/A","Female","Hispanic or Latino or Spanish Origin of any race","No","CEGEP, non-university college, trade school or equivalent","Yes, but not at a university","N/A","N/A","N/A","9","1","5","2","1","0.4666666880000001","stim/T020.jpg","76","76","0.28333334200000004","3","1","2","","2","0","3","2","3","2","3","3","2","3","1","2","2","2","3","5","5","4","0","0","0","3","0","4","2","4","1","3","2","5","2","0","0","1","2","3","4","3","4","1","3","3","1","3","6","1","5","5","5","3","3","4","5","5","2","4","4","1","1","0","0","agree","155104","","","[{""page_index"":0,""viewing_time"":4197.5},{""page_index"":1,""viewing_time"":15991},{""page_index"":2,""viewing_time"":47689.19999998808},{""page_index"":3,""viewing_time"":8692},{""page_index"":4,""viewing_time"":55735.90000003576},{""page_index"":5,""viewing_time"":16151.399999976158},{""page_index"":6,""viewing_time"":6646.100000023842}]","","","","","","","","",""
"image-keyboard-response","12","847471","0.0-8.0-0.0","3y1zorqe7jrzdw1","1","60fda481a96c200924ca0ea9","20","04/2001","single","english","N/A","Female","Hispanic or Latino or Spanish Origin of any race","No","CEGEP, non-university college, trade school or equivalent","Yes, but not at a university","N/A","N/A","N/A","9","1","5","2","1","0.4666666880000001","stim/T020.jpg","76","76","0.28333334200000004","3","1","2","","2","0","3","2","3","2","3","3","2","3","1","2","2","2","3","5","5","4","0","0","0","3","0","4","2","4","1","3","2","5","2","0","0","1","2","3","4","3","4","1","3","3","1","3","6","1","5","5","5","3","3","4","5","5","2","4","4","1","1","0","0","agree","null","","","","","","","","stim/H150.jpg","null","","",""
"html-keyboard-response","13","849506","0.0-8.0-1.0","3y1zorqe7jrzdw1","1","60fda481a96c200924ca0ea9","20","04/2001","single","english","N/A","Female","Hispanic or Latino or Spanish Origin of any race","No","CEGEP, non-university college, trade school or equivalent","Yes, but not at a university","N/A","N/A","N/A","9","1","5","2","1","0.4666666880000001","stim/T020.jpg","76","76","0.28333334200000004","3","1","2","","2","0","3","2","3","2","3","3","2","3","1","2","2","2","3","5","5","4","0","0","0","3","0","4","2","4","1","3","2","5","2","0","0","1","2","3","4","3","4","1","3","3","1","3","6","1","5","5","5","3","3","4","5","5","2","4","4","1","1","0","0","agree","2033","","","","","","","","<div style=""font-size:60px;"">?</div>","65","1","Practice","0.5"
"image-keyboard-response","14","850520","0.0-8.0-0.1","3y1zorqe7jrzdw1","1","60fda481a96c200924ca0ea9","20","04/2001","single","english","N/A","Female","Hispanic or Latino or Spanish Origin of any race","No","CEGEP, non-university college, trade school or equivalent","Yes, but not at a university","N/A","N/A","N/A","9","1","5","2","1","0.4666666880000001","stim/T020.jpg","76","76","0.28333334200000004","3","1","2","","2","0","3","2","3","2","3","3","2","3","1","2","2","2","3","5","5","4","0","0","0","3","0","4","2","4","1","3","2","5","2","0","0","1","2","3","4","3","4","1","3","3","1","3","6","1","5","5","5","3","3","4","5","5","2","4","4","1","1","0","0","agree","null","","","","","","","","stim/H090.jpg","null","","",""
"html-keyboard-response","15","851545","0.0-8.0-1.1","3y1zorqe7jrzdw1","1","60fda481a96c200924ca0ea9","20","04/2001","single","english","N/A","Female","Hispanic or Latino or Spanish Origin of any race","No","CEGEP, non-university college, trade school or equivalent","Yes, but not at a university","N/A","N/A","N/A","9","1","5","2","1","0.4666666880000001","stim/T020.jpg","76","76","0.28333334200000004","3","1","2","","2","0","3","2","3","2","3","3","2","3","1","2","2","2","3","5","5","4","0","0","0","3","0","4","2","4","1","3","2","5","2","0","0","1","2","3","4","3","4","1","3","3","1","3","6","1","5","5","5","3","3","4","5","5","2","4","4","1","1","0","0","agree","1023","","","","","","","","<div style=""font-size:60px;"">?</div>","65","2","Practice","0.5"
"image-keyboard-response","16","852560","0.0-8.0-0.2","3y1zorqe7jrzdw1","1","60fda481a96c200924ca0ea9","20","04/2001","single","english","N/A","Female","Hispanic or Latino or Spanish Origin of any race","No","CEGEP, non-university college, trade school or equivalent","Yes, but not at a university","N/A","N/A","N/A","9","1","5","2","1","0.4666666880000001","stim/T020.jpg","76","76","0.28333334200000004","3","1","2","","2","0","3","2","3","2","3","3","2","3","1","2","2","2","3","5","5","4","0","0","0","3","0","4","2","4","1","3","2","5","2","0","0","1","2","3","4","3","4","1","3","3","1","3","6","1","5","5","5","3","3","4","5","5","2","4","4","1","1","0","0","agree","null","","","","","","","","stim/H230.jpg","null","","",""
"html-keyboard-response","17","853557","0.0-8.0-1.2","3y1zorqe7jrzdw1","1","60fda481a96c200924ca0ea9","20","04/2001","single","english","N/A","Female","Hispanic or Latino or Spanish Origin of any race","No","CEGEP, non-university college, trade school or equivalent","Yes, but not at a university","N/A","N/A","N/A","9","1","5","2","1","0.4666666880000001","stim/T020.jpg","76","76","0.28333334200000004","3","1","2","","2","0","3","2","3","2","3","3","2","3","1","2","2","2","3","5","5","4","0","0","0","3","0","4","2","4","1","3","2","5","2","0","0","1","2","3","4","3","4","1","3","3","1","3","6","1","5","5","5","3","3","4","5","5","2","4","4","1","1","0","0","agree","995.6999999880791","","","","","","","","<div style=""font-size:60px;"">?</div>","76","3","Practice","0.5"
"image-keyboard-response","18","854585","0.0-8.0-0.3","3y1zorqe7jrzdw1","1","60fda481a96c200924ca0ea9","20","04/2001","single","english","N/A","Female","Hispanic or Latino or Spanish Origin of any race","No","CEGEP, non-university college, trade school or equivalent","Yes, but not at a university","N/A","N/A","N/A","9","1","5","2","1","0.4666666880000001","stim/T020.jpg","76","76","0.28333334200000004","3","1","2","","2","0","3","2","3","2","3","3","2","3","1","2","2","2","3","5","5","4","0","0","0","3","0","4","2","4","1","3","2","5","2","0","0","1","2","3","4","3","4","1","3","3","1","3","6","1","5","5","5","3","3","4","5","5","2","4","4","1","1","0","0","agree","null","","","","","","","","stim/T120.jpg","null","","",""
"html-keyboard-response","19","855281","0.0-8.0-1.3","3y1zorqe7jrzdw1","1","60fda481a96c200924ca0ea9","20","04/2001","single","english","N/A","Female","Hispanic or Latino or Spanish Origin of any race","No","CEGEP, non-university college, trade school or equivalent","Yes, but not at a university","N/A","N/A","N/A","9","1","5","2","1","0.4666666880000001","stim/T020.jpg","76","76","0.28333334200000004","3","1","2","","2","0","3","2","3","2","3","3","2","3","1","2","2","2","3","5","5","4","0","0","0","3","0","4","2","4","1","3","2","5","2","0","0","1","2","3","4","3","4","1","3","3","1","3","6","1","5","5","5","3","3","4","5","5","2","4","4","1","1","0","0","agree","694.5","","","","","","","","<div style=""font-size:60px;"">?</div>","76","4","Practice","0.5"
"image-keyboard-response","20","856307","0.0-8.0-0.4","3y1zorqe7jrzdw1","1","60fda481a96c200924ca0ea9","20","04/2001","single","english","N/A","Female","Hispanic or Latino or Spanish Origin of any race","No","CEGEP, non-university college, trade school or equivalent","Yes, but not at a university","N/A","N/A","N/A","9","1","5","2","1","0.4666666880000001","stim/T020.jpg","76","76","0.28333334200000004","3","1","2","","2","0","3","2","3","2","3","3","2","3","1","2","2","2","3","5","5","4","0","0","0","3","0","4","2","4","1","3","2","5","2","0","0","1","2","3","4","3","4","1","3","3","1","3","6","1","5","5","5","3","3","4","5","5","2","4","4","1","1","0","0","agree","null","","","","","","","","stim/H100.jpg","null","","",""
"html-keyboard-response","21","857634","0.0-8.0-1.4","3y1zorqe7jrzdw1","1","60fda481a96c200924ca0ea9","20","04/2001","single","english","N/A","Female","Hispanic or Latino or Spanish Origin of any race","No","CEGEP, non-university college, trade school or equivalent","Yes, but not at a university","N/A","N/A","N/A","9","1","5","2","1","0.4666666880000001","stim/T020.jpg","76","76","0.28333334200000004","3","1","2","","2","0","3","2","3","2","3","3","2","3","1","2","2","2","3","5","5","4","0","0","0","3","0","4","2","4","1","3","2","5","2","0","0","1","2","3","4","3","4","1","3","3","1","3","6","1","5","5","5","3","3","4","5","5","2","4","4","1","1","0","0","agree","1324.699999988079","","","","","","","","<div style=""font-size:60px;"">?</div>","76","5","Practice","0.5"
"image-keyboard-response","22","858652","0.0-8.0-0.5","3y1zorqe7jrzdw1","1","60fda481a96c200924ca0ea9","20","04/2001","single","english","N/A","Female","Hispanic or Latino or Spanish Origin of any race","No","CEGEP, non-university college, trade school or equivalent","Yes, but not at a university","N/A","N/A","N/A","9","1","5","2","1","0.4666666880000001","stim/T020.jpg","76","76","0.28333334200000004","3","1","2","","2","0","3","2","3","2","3","3","2","3","1","2","2","2","3","5","5","4","0","0","0","3","0","4","2","4","1","3","2","5","2","0","0","1","2","3","4","3","4","1","3","3","1","3","6","1","5","5","5","3","3","4","5","5","2","4","4","1","1","0","0","agree","null","","","","","","","","stim/T040.jpg","null","","",""
"html-keyboard-response","23","859104","0.0-8.0-1.5","3y1zorqe7jrzdw1","1","60fda481a96c200924ca0ea9","20","04/2001","single","english","N/A","Female","Hispanic or Latino or Spanish Origin of any race","No","CEGEP, non-university college, trade school or equivalent","Yes, but not at a university","N/A","N/A","N/A","9","1","5","2","1","0.4666666880000001","stim/T020.jpg","76","76","0.28333334200000004","3","1","2","","2","0","3","2","3","2","3","3","2","3","1","2","2","2","3","5","5","4","0","0","0","3","0","4","2","4","1","3","2","5","2","0","0","1","2","3","4","3","4","1","3","3","1","3","6","1","5","5","5","3","3","4","5","5","2","4","4","1","1","0","0","agree","449.7999999523163","","","","","","","","<div style=""font-size:60px;"">?</div>","76","6","Practice","0.5"
"image-keyboard-response","24","860124","0.0-8.0-0.6","3y1zorqe7jrzdw1","1","60fda481a96c200924ca0ea9","20","04/2001","single","english","N/A","Female","Hispanic or Latino or Spanish Origin of any race","No","CEGEP, non-university college, trade school or equivalent","Yes, but not at a university","N/A","N/A","N/A","9","1","5","2","1","0.4666666880000001","stim/T020.jpg","76","76","0.28333334200000004","3","1","2","","2","0","3","2","3","2","3","3","2","3","1","2","2","2","3","5","5","4","0","0","0","3","0","4","2","4","1","3","2","5","2","0","0","1","2","3","4","3","4","1","3","3","1","3","6","1","5","5","5","3","3","4","5","5","2","4","4","1","1","0","0","agree","null","","","","","","","","stim/H150.jpg","null","","",""
"html-keyboard-response","25","860892","0.0-8.0-1.6","3y1zorqe7jrzdw1","1","60fda481a96c200924ca0ea9","20","04/2001","single","english","N/A","Female","Hispanic or Latino or Spanish Origin of any race","No","CEGEP, non-university college, trade school or equivalent","Yes, but not at a university","N/A","N/A","N/A","9","1","5","2","1","0.4666666880000001","stim/T020.jpg","76","76","0.28333334200000004","3","1","2","","2","0","3","2","3","2","3","3","2","3","1","2","2","2","3","5","5","4","0","0","0","3","0","4","2","4","1","3","2","5","2","0","0","1","2","3","4","3","4","1","3","3","1","3","6","1","5","5","5","3","3","4","5","5","2","4","4","1","1","0","0","agree","766.5","","","","","","","","<div style=""font-size:60px;"">?</div>","76","7","Practice","0.5"
"image-keyboard-response","26","861928","0.0-8.0-0.7","3y1zorqe7jrzdw1","1","60fda481a96c200924ca0ea9","20","04/2001","single","english","N/A","Female","Hispanic or Latino or Spanish Origin of any race","No","CEGEP, non-university college, trade school or equivalent","Yes, but not at a university","N/A","N/A","N/A","9","1","5","2","1","0.4666666880000001","stim/T020.jpg","76","76","0.28333334200000004","3","1","2","","2","0","3","2","3","2","3","3","2","3","1","2","2","2","3","5","5","4","0","0","0","3","0","4","2","4","1","3","2","5","2","0","0","1","2","3","4","3","4","1","3","3","1","3","6","1","5","5","5","3","3","4","5","5","2","4","4","1","1","0","0","agree","null","","","","","","","","stim/T180.jpg","null","","",""
"html-keyboard-response","27","862368","0.0-8.0-1.7","3y1zorqe7jrzdw1","1","60fda481a96c200924ca0ea9","20","04/2001","single","english","N/A","Female","Hispanic or Latino or Spanish Origin of any race","No","CEGEP, non-university college, trade school or equivalent","Yes, but not at a university","N/A","N/A","N/A","9","1","5","2","1","0.4666666880000001","stim/T020.jpg","76","76","0.28333334200000004","3","1","2","","2","0","3","2","3","2","3","3","2","3","1","2","2","2","3","5","5","4","0","0","0","3","0","4","2","4","1","3","2","5","2","0","0","1","2","3","4","3","4","1","3","3","1","3","6","1","5","5","5","3","3","4","5","5","2","4","4","1","1","0","0","agree","438.69999998807907","","","","","","","","<div style=""font-size:60px;"">?</div>","76","8","Practice","0.5"
"image-keyboard-response","28","863376","0.0-8.0-0.8","3y1zorqe7jrzdw1","1","60fda481a96c200924ca0ea9","20","04/2001","single","english","N/A","Female","Hispanic or Latino or Spanish Origin of any race","No","CEGEP, non-university college, trade school or equivalent","Yes, but not at a university","N/A","N/A","N/A","9","1","5","2","1","0.4666666880000001","stim/T020.jpg","76","76","0.28333334200000004","3","1","2","","2","0","3","2","3","2","3","3","2","3","1","2","2","2","3","5","5","4","0","0","0","3","0","4","2","4","1","3","2","5","2","0","0","1","2","3","4","3","4","1","3","3","1","3","6","1","5","5","5","3","3","4","5","5","2","4","4","1","1","0","0","agree","null","","","","","","","","stim/T150.jpg","null","","",""
"html-keyboard-response","29","863565","0.0-8.0-1.8","3y1zorqe7jrzdw1","1","60fda481a96c200924ca0ea9","20","04/2001","single","english","N/A","Female","Hispanic or Latino or Spanish Origin of any race","No","CEGEP, non-university college, trade school or equivalent","Yes, but not at a university","N/A","N/A","N/A","9","1","5","2","1","0.4666666880000001","stim/T020.jpg","76","76","0.28333334200000004","3","1","2","","2","0","3","2","3","2","3","3","2","3","1","2","2","2","3","5","5","4","0","0","0","3","0","4","2","4","1","3","2","5","2","0","0","1","2","3","4","3","4","1","3","3","1","3","6","1","5","5","5","3","3","4","5","5","2","4","4","1","1","0","0","agree","187.39999997615814","","","","","","","","<div style=""font-size:60px;"">?</div>","76","9","Practice","0.5"
"image-keyboard-response","30","864585","0.0-8.0-0.9","3y1zorqe7jrzdw1","1","60fda481a96c200924ca0ea9","20","04/2001","single","english","N/A","Female","Hispanic or Latino or Spanish Origin of any race","No","CEGEP, non-university college, trade school or equivalent","Yes, but not at a university","N/A","N/A","N/A","9","1","5","2","1","0.4666666880000001","stim/T020.jpg","76","76","0.28333334200000004","3","1","2","","2","0","3","2","3","2","3","3","2","3","1","2","2","2","3","5","5","4","0","0","0","3","0","4","2","4","1","3","2","5","2","0","0","1","2","3","4","3","4","1","3","3","1","3","6","1","5","5","5","3","3","4","5","5","2","4","4","1","1","0","0","agree","null","","","","","","","","stim/T080.jpg","null","","",""
"html-keyboard-response","31","864699","0.0-8.0-1.9","3y1zorqe7jrzdw1","1","60fda481a96c200924ca0ea9","20","04/2001","single","english","N/A","Female","Hispanic or Latino or Spanish Origin of any race","No","CEGEP, non-university college, trade school or equivalent","Yes, but not at a university","N/A","N/A","N/A","9","1","5","2","1","0.4666666880000001","stim/T020.jpg","76","76","0.28333334200000004","3","1","2","","2","0","3","2","3","2","3","3","2","3","1","2","2","2","3","5","5","4","0","0","0","3","0","4","2","4","1","3","2","5","2","0","0","1","2","3","4","3","4","1","3","3","1","3","6","1","5","5","5","3","3","4","5","5","2","4","4","1","1","0","0","agree","112","","","","","","","","<div style=""font-size:60px;"">?</div>","76","10","Practice","0.5"
"html-keyboard-response","32","883159","0.0-9.0","3y1zorqe7jrzdw1","1","60fda481a96c200924ca0ea9","20","04/2001","single","english","N/A","Female","Hispanic or Latino or Spanish Origin of any race","No","CEGEP, non-university college, trade school or equivalent","Yes, but not at a university","N/A","N/A","N/A","9","1","5","2","1","0.4666666880000001","stim/T020.jpg","76","76","0.28333334200000004","3","1","2","","2","0","3","2","3","2","3","3","2","3","1","2","2","2","3","5","5","4","0","0","0","3","0","4","2","4","1","3","2","5","2","0","0","1","2","3","4","3","4","1","3","3","1","3","6","1","5","5","5","3","3","4","5","5","2","4","4","1","1","0","0","agree","17947.69999998808","","","","","","","","<p>You have now completed the practice series.</p><p>If you have any questions, please reload this page and read the instructions again.</p><p>Otherwise, you're ready to begin the study!</p><p><strong>REMEMBER</strong>: Press <b>L </b>when you think the face is of Western origin, and <b>A </b>if not. </p><p>Press SPACE when you're ready to start!</p>","32","","",""
"html-keyboard-response","33","886064","0.0-10.0","3y1zorqe7jrzdw1","1","60fda481a96c200924ca0ea9","20","04/2001","single","english","N/A","Female","Hispanic or Latino or Spanish Origin of any race","No","CEGEP, non-university college, trade school or equivalent","Yes, but not at a university","N/A","N/A","N/A","9","1","5","2","1","0.4666666880000001","stim/T020.jpg","76","76","0.28333334200000004","3","1","2","","2","0","3","2","3","2","3","3","2","3","1","2","2","2","3","5","5","4","0","0","0","3","0","4","2","4","1","3","2","5","2","0","0","1","2","3","4","3","4","1","3","3","1","3","6","1","5","5","5","3","3","4","5","5","2","4","4","1","1","0","0","agree","2392.599999964237","","","","","","","","<p>Block 1</p><p>Press SPACE to continue.</p>","32","","",""
"image-keyboard-response","34","887571","0.0-11.0-0.0","3y1zorqe7jrzdw1","1","60fda481a96c200924ca0ea9","20","04/2001","single","english","N/A","Female","Hispanic or Latino or Spanish Origin of any race","No","CEGEP, non-university college, trade school or equivalent","Yes, but not at a university","N/A","N/A","N/A","9","1","5","2","1","0.4666666880000001","stim/T020.jpg","76","76","0.28333334200000004","3","1","2","","2","0","3","2","3","2","3","3","2","3","1","2","2","2","3","5","5","4","0","0","0","3","0","4","2","4","1","3","2","5","2","0","0","1","2","3","4","3","4","1","3","3","1","3","6","1","5","5","5","3","3","4","5","5","2","4","4","1","1","0","0","agree","null","","","","","","","","stim/T100.jpg","null","","",""
"html-keyboard-response","35","888687","0.0-11.0-1.0","3y1zorqe7jrzdw1","1","60fda481a96c200924ca0ea9","20","04/2001","single","english","N/A","Female","Hispanic or Latino or Spanish Origin of any race","No","CEGEP, non-university college, trade school or equivalent","Yes, but not at a university","N/A","N/A","N/A","9","1","5","2","1","0.4666666880000001","stim/T020.jpg","76","76","0.28333334200000004","3","1","2","","2","0","3","2","3","2","3","3","2","3","1","2","2","2","3","5","5","4","0","0","0","3","0","4","2","4","1","3","2","5","2","0","0","1","2","3","4","3","4","1","3","3","1","3","6","1","5","5","5","3","3","4","5","5","2","4","4","1","1","0","0","agree","1114.800000011921","","","","","","","","<div style=""font-size:60px;"">?</div>","76","1","1","0.8"
"image-keyboard-response","36","889713","0.0-11.0-0.1","3y1zorqe7jrzdw1","1","60fda481a96c200924ca0ea9","20","04/2001","single","english","N/A","Female","Hispanic or Latino or Spanish Origin of any race","No","CEGEP, non-university college, trade school or equivalent","Yes, but not at a university","N/A","N/A","N/A","9","1","5","2","1","0.4666666880000001","stim/T020.jpg","76","76","0.28333334200000004","3","1","2","","2","0","3","2","3","2","3","3","2","3","1","2","2","2","3","5","5","4","0","0","0","3","0","4","2","4","1","3","2","5","2","0","0","1","2","3","4","3","4","1","3","3","1","3","6","1","5","5","5","3","3","4","5","5","2","4","4","1","1","0","0","agree","null","","","","","","","","stim/T260.jpg","null","","",""
"html-keyboard-response","37","891502","0.0-11.0-1.1","3y1zorqe7jrzdw1","1","60fda481a96c200924ca0ea9","20","04/2001","single","english","N/A","Female","Hispanic or Latino or Spanish Origin of any race","No","CEGEP, non-university college, trade school or equivalent","Yes, but not at a university","N/A","N/A","N/A","9","1","5","2","1","0.4666666880000001","stim/T020.jpg","76","76","0.28333334200000004","3","1","2","","2","0","3","2","3","2","3","3","2","3","1","2","2","2","3","5","5","4","0","0","0","3","0","4","2","4","1","3","2","5","2","0","0","1","2","3","4","3","4","1","3","3","1","3","6","1","5","5","5","3","3","4","5","5","2","4","4","1","1","0","0","agree","1787.6000000238419","","","","","","","","<div style=""font-size:60px;"">?</div>","76","2","1","0.8"
"image-keyboard-response","38","892526","0.0-11.0-0.2","3y1zorqe7jrzdw1","1","60fda481a96c200924ca0ea9","20","04/2001","single","english","N/A","Female","Hispanic or Latino or Spanish Origin of any race","No","CEGEP, non-university college, trade school or equivalent","Yes, but not at a university","N/A","N/A","N/A","9","1","5","2","1","0.4666666880000001","stim/T020.jpg","76","76","0.28333334200000004","3","1","2","","2","0","3","2","3","2","3","3","2","3","1","2","2","2","3","5","5","4","0","0","0","3","0","4","2","4","1","3","2","5","2","0","0","1","2","3","4","3","4","1","3","3","1","3","6","1","5","5","5","3","3","4","5","5","2","4","4","1","1","0","0","agree","null","","","","","","","","stim/H190.jpg","null","","",""
"html-keyboard-response","39","893299","0.0-11.0-1.2","3y1zorqe7jrzdw1","1","60fda481a96c200924ca0ea9","20","04/2001","single","english","N/A","Female","Hispanic or Latino or Spanish Origin of any race","No","CEGEP, non-university college, trade school or equivalent","Yes, but not at a university","N/A","N/A","N/A","9","1","5","2","1","0.4666666880000001","stim/T020.jpg","76","76","0.28333334200000004","3","1","2","","2","0","3","2","3","2","3","3","2","3","1","2","2","2","3","5","5","4","0","0","0","3","0","4","2","4","1","3","2","5","2","0","0","1","2","3","4","3","4","1","3","3","1","3","6","1","5","5","5","3","3","4","5","5","2","4","4","1","1","0","0","agree","770.4000000357628","","","","","","","","<div style=""font-size:60px;"">?</div>","76","3","1","0.8"
"image-keyboard-response","40","894304","0.0-11.0-0.3","3y1zorqe7jrzdw1","1","60fda481a96c200924ca0ea9","20","04/2001","single","english","N/A","Female","Hispanic or Latino or Spanish Origin of any race","No","CEGEP, non-university college, trade school or equivalent","Yes, but not at a university","N/A","N/A","N/A","9","1","5","2","1","0.4666666880000001","stim/T020.jpg","76","76","0.28333334200000004","3","1","2","","2","0","3","2","3","2","3","3","2","3","1","2","2","2","3","5","5","4","0","0","0","3","0","4","2","4","1","3","2","5","2","0","0","1","2","3","4","3","4","1","3","3","1","3","6","1","5","5","5","3","3","4","5","5","2","4","4","1","1","0","0","agree","null","","","","","","","","stim/H090.jpg","null","","",""
"html-keyboard-response","41","894937","0.0-11.0-1.3","3y1zorqe7jrzdw1","1","60fda481a96c200924ca0ea9","20","04/2001","single","english","N/A","Female","Hispanic or Latino or Spanish Origin of any race","No","CEGEP, non-university college, trade school or equivalent","Yes, but not at a university","N/A","N/A","N/A","9","1","5","2","1","0.4666666880000001","stim/T020.jpg","76","76","0.28333334200000004","3","1","2","","2","0","3","2","3","2","3","3","2","3","1","2","2","2","3","5","5","4","0","0","0","3","0","4","2","4","1","3","2","5","2","0","0","1","2","3","4","3","4","1","3","3","1","3","6","1","5","5","5","3","3","4","5","5","2","4","4","1","1","0","0","agree","631.5","","","","","","","","<div style=""font-size:60px;"">?</div>","76","4","1","0.8"
"image-keyboard-response","42","895943","0.0-11.0-0.4","3y1zorqe7jrzdw1","1","60fda481a96c200924ca0ea9","20","04/2001","single","english","N/A","Female","Hispanic or Latino or Spanish Origin of any race","No","CEGEP, non-university college, trade school or equivalent","Yes, but not at a university","N/A","N/A","N/A","9","1","5","2","1","0.4666666880000001","stim/T020.jpg","76","76","0.28333334200000004","3","1","2","","2","0","3","2","3","2","3","3","2","3","1","2","2","2","3","5","5","4","0","0","0","3","0","4","2","4","1","3","2","5","2","0","0","1","2","3","4","3","4","1","3","3","1","3","6","1","5","5","5","3","3","4","5","5","2","4","4","1","1","0","0","agree","null","","","","","","","","stim/H230.jpg","null","","",""
"html-keyboard-response","43","896329","0.0-11.0-1.4","3y1zorqe7jrzdw1","1","60fda481a96c200924ca0ea9","20","04/2001","single","english","N/A","Female","Hispanic or Latino or Spanish Origin of any race","No","CEGEP, non-university college, trade school or equivalent","Yes, but not at a university","N/A","N/A","N/A","9","1","5","2","1","0.4666666880000001","stim/T020.jpg","76","76","0.28333334200000004","3","1","2","","2","0","3","2","3","2","3","3","2","3","1","2","2","2","3","5","5","4","0","0","0","3","0","4","2","4","1","3","2","5","2","0","0","1","2","3","4","3","4","1","3","3","1","3","6","1","5","5","5","3","3","4","5","5","2","4","4","1","1","0","0","agree","384.19999998807907","","","","","","","","<div style=""font-size:60px;"">?</div>","76","5","1","0.8"
"image-keyboard-response","44","897340","0.0-11.0-0.5","3y1zorqe7jrzdw1","1","60fda481a96c200924ca0ea9","20","04/2001","single","english","N/A","Female","Hispanic or Latino or Spanish Origin of any race","No","CEGEP, non-university college, trade school or equivalent","Yes, but not at a university","N/A","N/A","N/A","9","1","5","2","1","0.4666666880000001","stim/T020.jpg","76","76","0.28333334200000004","3","1","2","","2","0","3","2","3","2","3","3","2","3","1","2","2","2","3","5","5","4","0","0","0","3","0","4","2","4","1","3","2","5","2","0","0","1","2","3","4","3","4","1","3","3","1","3","6","1","5","5","5","3","3","4","5","5","2","4","4","1","1","0","0","agree","null","","","","","","","","stim/H140.jpg","null","","",""
"html-keyboard-response","45","897756","0.0-11.0-1.5","3y1zorqe7jrzdw1","1","60fda481a96c200924ca0ea9","20","04/2001","single","english","N/A","Female","Hispanic or Latino or Spanish Origin of any race","No","CEGEP, non-university college, trade school or equivalent","Yes, but not at a university","N/A","N/A","N/A","9","1","5","2","1","0.4666666880000001","stim/T020.jpg","76","76","0.28333334200000004","3","1","2","","2","0","3","2","3","2","3","3","2","3","1","2","2","2","3","5","5","4","0","0","0","3","0","4","2","4","1","3","2","5","2","0","0","1","2","3","4","3","4","1","3","3","1","3","6","1","5","5","5","3","3","4","5","5","2","4","4","1","1","0","0","agree","414.30000001192093","","","","","","","","<div style=""font-size:60px;"">?</div>","76","6","1","0.8"
"image-keyboard-response","46","898774","0.0-11.0-0.6","3y1zorqe7jrzdw1","1","60fda481a96c200924ca0ea9","20","04/2001","single","english","N/A","Female","Hispanic or Latino or Spanish Origin of any race","No","CEGEP, non-university college, trade school or equivalent","Yes, but not at a university","N/A","N/A","N/A","9","1","5","2","1","0.4666666880000001","stim/T020.jpg","76","76","0.28333334200000004","3","1","2","","2","0","3","2","3","2","3","3","2","3","1","2","2","2","3","5","5","4","0","0","0","3","0","4","2","4","1","3","2","5","2","0","0","1","2","3","4","3","4","1","3","3","1","3","6","1","5","5","5","3","3","4","5","5","2","4","4","1","1","0","0","agree","null","","","","","","","","stim/H200.jpg","null","","",""
"html-keyboard-response","47","898999","0.0-11.0-1.6","3y1zorqe7jrzdw1","1","60fda481a96c200924ca0ea9","20","04/2001","single","english","N/A","Female","Hispanic or Latino or Spanish Origin of any race","No","CEGEP, non-university college, trade school or equivalent","Yes, but not at a university","N/A","N/A","N/A","9","1","5","2","1","0.4666666880000001","stim/T020.jpg","76","76","0.28333334200000004","3","1","2","","2","0","3","2","3","2","3","3","2","3","1","2","2","2","3","5","5","4","0","0","0","3","0","4","2","4","1","3","2","5","2","0","0","1","2","3","4","3","4","1","3","3","1","3","6","1","5","5","5","3","3","4","5","5","2","4","4","1","1","0","0","agree","222.60000002384186","","","","","","","","<div style=""font-size:60px;"">?</div>","76","7","1","0.8"
"image-keyboard-response","48","900022","0.0-11.0-0.7","3y1zorqe7jrzdw1","1","60fda481a96c200924ca0ea9","20","04/2001","single","english","N/A","Female","Hispanic or Latino or Spanish Origin of any race","No","CEGEP, non-university college, trade school or equivalent","Yes, but not at a university","N/A","N/A","N/A","9","1","5","2","1","0.4666666880000001","stim/T020.jpg","76","76","0.28333334200000004","3","1","2","","2","0","3","2","3","2","3","3","2","3","1","2","2","2","3","5","5","4","0","0","0","3","0","4","2","4","1","3","2","5","2","0","0","1","2","3","4","3","4","1","3","3","1","3","6","1","5","5","5","3","3","4","5","5","2","4","4","1","1","0","0","agree","null","","","","","","","","stim/H220.jpg","null","","",""
"html-keyboard-response","49","900185","0.0-11.0-1.7","3y1zorqe7jrzdw1","1","60fda481a96c200924ca0ea9","20","04/2001","single","english","N/A","Female","Hispanic or Latino or Spanish Origin of any race","No","CEGEP, non-university college, trade school or equivalent","Yes, but not at a university","N/A","N/A","N/A","9","1","5","2","1","0.4666666880000001","stim/T020.jpg","76","76","0.28333334200000004","3","1","2","","2","0","3","2","3","2","3","3","2","3","1","2","2","2","3","5","5","4","0","0","0","3","0","4","2","4","1","3","2","5","2","0","0","1","2","3","4","3","4","1","3","3","1","3","6","1","5","5","5","3","3","4","5","5","2","4","4","1","1","0","0","agree","161","","","","","","","","<div style=""font-size:60px;"">?</div>","76","8","1","0.8"
"image-keyboard-response","50","901208","0.0-11.0-0.8","3y1zorqe7jrzdw1","1","60fda481a96c200924ca0ea9","20","04/2001","single","english","N/A","Female","Hispanic or Latino or Spanish Origin of any race","No","CEGEP, non-university college, trade school or equivalent","Yes, but not at a university","N/A","N/A","N/A","9","1","5","2","1","0.4666666880000001","stim/T020.jpg","76","76","0.28333334200000004","3","1","2","","2","0","3","2","3","2","3","3","2","3","1","2","2","2","3","5","5","4","0","0","0","3","0","4","2","4","1","3","2","5","2","0","0","1","2","3","4","3","4","1","3","3","1","3","6","1","5","5","5","3","3","4","5","5","2","4","4","1","1","0","0","agree","null","","","","","","","","stim/T070.jpg","null","","",""
"html-keyboard-response","51","901281","0.0-11.0-1.8","3y1zorqe7jrzdw1","1","60fda481a96c200924ca0ea9","20","04/2001","single","english","N/A","Female","Hispanic or Latino or Spanish Origin of any race","No","CEGEP, non-university college, trade school or equivalent","Yes, but not at a university","N/A","N/A","N/A","9","1","5","2","1","0.4666666880000001","stim/T020.jpg","76","76","0.28333334200000004","3","1","2","","2","0","3","2","3","2","3","3","2","3","1","2","2","2","3","5","5","4","0","0","0","3","0","4","2","4","1","3","2","5","2","0","0","1","2","3","4","3","4","1","3","3","1","3","6","1","5","5","5","3","3","4","5","5","2","4","4","1","1","0","0","agree","71.90000003576279","","","","","","","","<div style=""font-size:60px;"">?</div>","65","9","1","0.8"
"image-keyboard-response","52","902301","0.0-11.0-0.9","3y1zorqe7jrzdw1","1","60fda481a96c200924ca0ea9","20","04/2001","single","english","N/A","Female","Hispanic or Latino or Spanish Origin of any race","No","CEGEP, non-university college, trade school or equivalent","Yes, but not at a university","N/A","N/A","N/A","9","1","5","2","1","0.4666666880000001","stim/T020.jpg","76","76","0.28333334200000004","3","1","2","","2","0","3","2","3","2","3","3","2","3","1","2","2","2","3","5","5","4","0","0","0","3","0","4","2","4","1","3","2","5","2","0","0","1","2","3","4","3","4","1","3","3","1","3","6","1","5","5","5","3","3","4","5","5","2","4","4","1","1","0","0","agree","null","","","","","","","","stim/H110.jpg","null","","",""
"html-keyboard-response","53","902375","0.0-11.0-1.9","3y1zorqe7jrzdw1","1","60fda481a96c200924ca0ea9","20","04/2001","single","english","N/A","Female","Hispanic or Latino or Spanish Origin of any race","No","CEGEP, non-university college, trade school or equivalent","Yes, but not at a university","N/A","N/A","N/A","9","1","5","2","1","0.4666666880000001","stim/T020.jpg","76","76","0.28333334200000004","3","1","2","","2","0","3","2","3","2","3","3","2","3","1","2","2","2","3","5","5","4","0","0","0","3","0","4","2","4","1","3","2","5","2","0","0","1","2","3","4","3","4","1","3","3","1","3","6","1","5","5","5","3","3","4","5","5","2","4","4","1","1","0","0","agree","73.39999997615814","","","","","","","","<div style=""font-size:60px;"">?</div>","76","10","1","0.8"
"image-keyboard-response","54","903382","0.0-11.0-0.10","3y1zorqe7jrzdw1","1","60fda481a96c200924ca0ea9","20","04/2001","single","english","N/A","Female","Hispanic or Latino or Spanish Origin of any race","No","CEGEP, non-university college, trade school or equivalent","Yes, but not at a university","N/A","N/A","N/A","9","1","5","2","1","0.4666666880000001","stim/T020.jpg","76","76","0.28333334200000004","3","1","2","","2","0","3","2","3","2","3","3","2","3","1","2","2","2","3","5","5","4","0","0","0","3","0","4","2","4","1","3","2","5","2","0","0","1","2","3","4","3","4","1","3","3","1","3","6","1","5","5","5","3","3","4","5","5","2","4","4","1","1","0","0","agree","null","","","","","","","","stim/H030.jpg","null","","",""
"html-keyboard-response","55","903488","0.0-11.0-1.10","3y1zorqe7jrzdw1","1","60fda481a96c200924ca0ea9","20","04/2001","single","english","N/A","Female","Hispanic or Latino or Spanish Origin of any race","No","CEGEP, non-university college, trade school or equivalent","Yes, but not at a university","N/A","N/A","N/A","9","1","5","2","1","0.4666666880000001","stim/T020.jpg","76","76","0.28333334200000004","3","1","2","","2","0","3","2","3","2","3","3","2","3","1","2","2","2","3","5","5","4","0","0","0","3","0","4","2","4","1","3","2","5","2","0","0","1","2","3","4","3","4","1","3","3","1","3","6","1","5","5","5","3","3","4","5","5","2","4","4","1","1","0","0","agree","104.69999998807907","","","","","","","","<div style=""font-size:60px;"">?</div>","65","11","1","0.8"
"image-keyboard-response","56","904503","0.0-11.0-0.11","3y1zorqe7jrzdw1","1","60fda481a96c200924ca0ea9","20","04/2001","single","english","N/A","Female","Hispanic or Latino or Spanish Origin of any race","No","CEGEP, non-university college, trade school or equivalent","Yes, but not at a university","N/A","N/A","N/A","9","1","5","2","1","0.4666666880000001","stim/T020.jpg","76","76","0.28333334200000004","3","1","2","","2","0","3","2","3","2","3","3","2","3","1","2","2","2","3","5","5","4","0","0","0","3","0","4","2","4","1","3","2","5","2","0","0","1","2","3","4","3","4","1","3","3","1","3","6","1","5","5","5","3","3","4","5","5","2","4","4","1","1","0","0","agree","null","","","","","","","","stim/H200.jpg","null","","",""
"html-keyboard-response","57","908054","0.0-11.0-1.11","3y1zorqe7jrzdw1","1","60fda481a96c200924ca0ea9","20","04/2001","single","english","N/A","Female","Hispanic or Latino or Spanish Origin of any race","No","CEGEP, non-university college, trade school or equivalent","Yes, but not at a university","N/A","N/A","N/A","9","1","5","2","1","0.4666666880000001","stim/T020.jpg","76","76","0.28333334200000004","3","1","2","","2","0","3","2","3","2","3","3","2","3","1","2","2","2","3","5","5","4","0","0","0","3","0","4","2","4","1","3","2","5","2","0","0","1","2","3","4","3","4","1","3","3","1","3","6","1","5","5","5","3","3","4","5","5","2","4","4","1","1","0","0","agree","3550","","","","","","","","<div style=""font-size:60px;"">?</div>","76","12","1","0.8"
"image-keyboard-response","58","909082","0.0-11.0-0.12","3y1zorqe7jrzdw1","1","60fda481a96c200924ca0ea9","20","04/2001","single","english","N/A","Female","Hispanic or Latino or Spanish Origin of any race","No","CEGEP, non-university college, trade school or equivalent","Yes, but not at a university","N/A","N/A","N/A","9","1","5","2","1","0.4666666880000001","stim/T020.jpg","76","76","0.28333334200000004","3","1","2","","2","0","3","2","3","2","3","3","2","3","1","2","2","2","3","5","5","4","0","0","0","3","0","4","2","4","1","3","2","5","2","0","0","1","2","3","4","3","4","1","3","3","1","3","6","1","5","5","5","3","3","4","5","5","2","4","4","1","1","0","0","agree","null","","","","","","","","stim/H210.jpg","null","","",""
"html-keyboard-response","59","909428","0.0-11.0-1.12","3y1zorqe7jrzdw1","1","60fda481a96c200924ca0ea9","20","04/2001","single","english","N/A","Female","Hispanic or Latino or Spanish Origin of any race","No","CEGEP, non-university college, trade school or equivalent","Yes, but not at a university","N/A","N/A","N/A","9","1","5","2","1","0.4666666880000001","stim/T020.jpg","76","76","0.28333334200000004","3","1","2","","2","0","3","2","3","2","3","3","2","3","1","2","2","2","3","5","5","4","0","0","0","3","0","4","2","4","1","3","2","5","2","0","0","1","2","3","4","3","4","1","3","3","1","3","6","1","5","5","5","3","3","4","5","5","2","4","4","1","1","0","0","agree","344.4000000357628","","","","","","","","<div style=""font-size:60px;"">?</div>","76","13","1","0.8"
"image-keyboard-response","60","910444","0.0-11.0-0.13","3y1zorqe7jrzdw1","1","60fda481a96c200924ca0ea9","20","04/2001","single","english","N/A","Female","Hispanic or Latino or Spanish Origin of any race","No","CEGEP, non-university college, trade school or equivalent","Yes, but not at a university","N/A","N/A","N/A","9","1","5","2","1","0.4666666880000001","stim/T020.jpg","76","76","0.28333334200000004","3","1","2","","2","0","3","2","3","2","3","3","2","3","1","2","2","2","3","5","5","4","0","0","0","3","0","4","2","4","1","3","2","5","2","0","0","1","2","3","4","3","4","1","3","3","1","3","6","1","5","5","5","3","3","4","5","5","2","4","4","1","1","0","0","agree","null","","","","","","","","stim/H010.jpg","null","","",""
"html-keyboard-response","61","910761","0.0-11.0-1.13","3y1zorqe7jrzdw1","1","60fda481a96c200924ca0ea9","20","04/2001","single","english","N/A","Female","Hispanic or Latino or Spanish Origin of any race","No","CEGEP, non-university college, trade school or equivalent","Yes, but not at a university","N/A","N/A","N/A","9","1","5","2","1","0.4666666880000001","stim/T020.jpg","76","76","0.28333334200000004","3","1","2","","2","0","3","2","3","2","3","3","2","3","1","2","2","2","3","5","5","4","0","0","0","3","0","4","2","4","1","3","2","5","2","0","0","1","2","3","4","3","4","1","3","3","1","3","6","1","5","5","5","3","3","4","5","5","2","4","4","1","1","0","0","agree","315.10000002384186","","","","","","","","<div style=""font-size:60px;"">?</div>","76","14","1","0.8"
"image-keyboard-response","62","911781","0.0-11.0-0.14","3y1zorqe7jrzdw1","1","60fda481a96c200924ca0ea9","20","04/2001","single","english","N/A","Female","Hispanic or Latino or Spanish Origin of any race","No","CEGEP, non-university college, trade school or equivalent","Yes, but not at a university","N/A","N/A","N/A","9","1","5","2","1","0.4666666880000001","stim/T020.jpg","76","76","0.28333334200000004","3","1","2","","2","0","3","2","3","2","3","3","2","3","1","2","2","2","3","5","5","4","0","0","0","3","0","4","2","4","1","3","2","5","2","0","0","1","2","3","4","3","4","1","3","3","1","3","6","1","5","5","5","3","3","4","5","5","2","4","4","1","1","0","0","agree","null","","","","","","","","stim/H150.jpg","null","","",""
"html-keyboard-response","63","912077","0.0-11.0-1.14","3y1zorqe7jrzdw1","1","60fda481a96c200924ca0ea9","20","04/2001","single","english","N/A","Female","Hispanic or Latino or Spanish Origin of any race","No","CEGEP, non-university college, trade school or equivalent","Yes, but not at a university","N/A","N/A","N/A","9","1","5","2","1","0.4666666880000001","stim/T020.jpg","76","76","0.28333334200000004","3","1","2","","2","0","3","2","3","2","3","3","2","3","1","2","2","2","3","5","5","4","0","0","0","3","0","4","2","4","1","3","2","5","2","0","0","1","2","3","4","3","4","1","3","3","1","3","6","1","5","5","5","3","3","4","5","5","2","4","4","1","1","0","0","agree","293.5","","","","","","","","<div style=""font-size:60px;"">?</div>","76","15","1","0.8"
"image-keyboard-response","64","913099","0.0-11.0-0.15","3y1zorqe7jrzdw1","1","60fda481a96c200924ca0ea9","20","04/2001","single","english","N/A","Female","Hispanic or Latino or Spanish Origin of any race","No","CEGEP, non-university college, trade school or equivalent","Yes, but not at a university","N/A","N/A","N/A","9","1","5","2","1","0.4666666880000001","stim/T020.jpg","76","76","0.28333334200000004","3","1","2","","2","0","3","2","3","2","3","3","2","3","1","2","2","2","3","5","5","4","0","0","0","3","0","4","2","4","1","3","2","5","2","0","0","1","2","3","4","3","4","1","3","3","1","3","6","1","5","5","5","3","3","4","5","5","2","4","4","1","1","0","0","agree","null","","","","","","","","stim/T220.jpg","null","","",""
"html-keyboard-response","65","914752","0.0-11.0-1.15","3y1zorqe7jrzdw1","1","60fda481a96c200924ca0ea9","20","04/2001","single","english","N/A","Female","Hispanic or Latino or Spanish Origin of any race","No","CEGEP, non-university college, trade school or equivalent","Yes, but not at a university","N/A","N/A","N/A","9","1","5","2","1","0.4666666880000001","stim/T020.jpg","76","76","0.28333334200000004","3","1","2","","2","0","3","2","3","2","3","3","2","3","1","2","2","2","3","5","5","4","0","0","0","3","0","4","2","4","1","3","2","5","2","0","0","1","2","3","4","3","4","1","3","3","1","3","6","1","5","5","5","3","3","4","5","5","2","4","4","1","1","0","0","agree","1651.800000011921","","","","","","","","<div style=""font-size:60px;"">?</div>","65","16","1","0.8"
"image-keyboard-response","66","915765","0.0-11.0-0.16","3y1zorqe7jrzdw1","1","60fda481a96c200924ca0ea9","20","04/2001","single","english","N/A","Female","Hispanic or Latino or Spanish Origin of any race","No","CEGEP, non-university college, trade school or equivalent","Yes, but not at a university","N/A","N/A","N/A","9","1","5","2","1","0.4666666880000001","stim/T020.jpg","76","76","0.28333334200000004","3","1","2","","2","0","3","2","3","2","3","3","2","3","1","2","2","2","3","5","5","4","0","0","0","3","0","4","2","4","1","3","2","5","2","0","0","1","2","3","4","3","4","1","3","3","1","3","6","1","5","5","5","3","3","4","5","5","2","4","4","1","1","0","0","agree","null","","","","","","","","stim/T090.jpg","null","","",""
"html-keyboard-response","67","915817","0.0-11.0-1.16","3y1zorqe7jrzdw1","1","60fda481a96c200924ca0ea9","20","04/2001","single","english","N/A","Female","Hispanic or Latino or Spanish Origin of any race","No","CEGEP, non-university college, trade school or equivalent","Yes, but not at a university","N/A","N/A","N/A","9","1","5","2","1","0.4666666880000001","stim/T020.jpg","76","76","0.28333334200000004","3","1","2","","2","0","3","2","3","2","3","3","2","3","1","2","2","2","3","5","5","4","0","0","0","3","0","4","2","4","1","3","2","5","2","0","0","1","2","3","4","3","4","1","3","3","1","3","6","1","5","5","5","3","3","4","5","5","2","4","4","1","1","0","0","agree","50.80000001192093","","","","","","","","<div style=""font-size:60px;"">?</div>","65","17","1","0.8"
"image-keyboard-response","68","916840","0.0-11.0-0.17","3y1zorqe7jrzdw1","1","60fda481a96c200924ca0ea9","20","04/2001","single","english","N/A","Female","Hispanic or Latino or Spanish Origin of any race","No","CEGEP, non-university college, trade school or equivalent","Yes, but not at a university","N/A","N/A","N/A","9","1","5","2","1","0.4666666880000001","stim/T020.jpg","76","76","0.28333334200000004","3","1","2","","2","0","3","2","3","2","3","3","2","3","1","2","2","2","3","5","5","4","0","0","0","3","0","4","2","4","1","3","2","5","2","0","0","1","2","3","4","3","4","1","3","3","1","3","6","1","5","5","5","3","3","4","5","5","2","4","4","1","1","0","0","agree","null","","","","","","","","stim/T260.jpg","null","","",""
"html-keyboard-response","69","916874","0.0-11.0-1.17","3y1zorqe7jrzdw1","1","60fda481a96c200924ca0ea9","20","04/2001","single","english","N/A","Female","Hispanic or Latino or Spanish Origin of any race","No","CEGEP, non-university college, trade school or equivalent","Yes, but not at a university","N/A","N/A","N/A","9","1","5","2","1","0.4666666880000001","stim/T020.jpg","76","76","0.28333334200000004","3","1","2","","2","0","3","2","3","2","3","3","2","3","1","2","2","2","3","5","5","4","0","0","0","3","0","4","2","4","1","3","2","5","2","0","0","1","2","3","4","3","4","1","3","3","1","3","6","1","5","5","5","3","3","4","5","5","2","4","4","1","1","0","0","agree","31.80000001192093","","","","","","","","<div style=""font-size:60px;"">?</div>","65","18","1","0.8"
"image-keyboard-response","70","917882","0.0-11.0-0.18","3y1zorqe7jrzdw1","1","60fda481a96c200924ca0ea9","20","04/2001","single","english","N/A","Female","Hispanic or Latino or Spanish Origin of any race","No","CEGEP, non-university college, trade school or equivalent","Yes, but not at a university","N/A","N/A","N/A","9","1","5","2","1","0.4666666880000001","stim/T020.jpg","76","76","0.28333334200000004","3","1","2","","2","0","3","2","3","2","3","3","2","3","1","2","2","2","3","5","5","4","0","0","0","3","0","4","2","4","1","3","2","5","2","0","0","1","2","3","4","3","4","1","3","3","1","3","6","1","5","5","5","3","3","4","5","5","2","4","4","1","1","0","0","agree","null","","","","","","","","stim/H050.jpg","null","","",""
"html-keyboard-response","71","918104","0.0-11.0-1.18","3y1zorqe7jrzdw1","1","60fda481a96c200924ca0ea9","20","04/2001","single","english","N/A","Female","Hispanic or Latino or Spanish Origin of any race","No","CEGEP, non-university college, trade school or equivalent","Yes, but not at a university","N/A","N/A","N/A","9","1","5","2","1","0.4666666880000001","stim/T020.jpg","76","76","0.28333334200000004","3","1","2","","2","0","3","2","3","2","3","3","2","3","1","2","2","2","3","5","5","4","0","0","0","3","0","4","2","4","1","3","2","5","2","0","0","1","2","3","4","3","4","1","3","3","1","3","6","1","5","5","5","3","3","4","5","5","2","4","4","1","1","0","0","agree","220.5","","","","","","","","<div style=""font-size:60px;"">?</div>","76","19","1","0.8"
"image-keyboard-response","72","919127","0.0-11.0-0.19","3y1zorqe7jrzdw1","1","60fda481a96c200924ca0ea9","20","04/2001","single","english","N/A","Female","Hispanic or Latino or Spanish Origin of any race","No","CEGEP, non-university college, trade school or equivalent","Yes, but not at a university","N/A","N/A","N/A","9","1","5","2","1","0.4666666880000001","stim/T020.jpg","76","76","0.28333334200000004","3","1","2","","2","0","3","2","3","2","3","3","2","3","1","2","2","2","3","5","5","4","0","0","0","3","0","4","2","4","1","3","2","5","2","0","0","1","2","3","4","3","4","1","3","3","1","3","6","1","5","5","5","3","3","4","5","5","2","4","4","1","1","0","0","agree","null","","","","","","","","stim/H100.jpg","null","","",""
"html-keyboard-response","73","919230","0.0-11.0-1.19","3y1zorqe7jrzdw1","1","60fda481a96c200924ca0ea9","20","04/2001","single","english","N/A","Female","Hispanic or Latino or Spanish Origin of any race","No","CEGEP, non-university college, trade school or equivalent","Yes, but not at a university","N/A","N/A","N/A","9","1","5","2","1","0.4666666880000001","stim/T020.jpg","76","76","0.28333334200000004","3","1","2","","2","0","3","2","3","2","3","3","2","3","1","2","2","2","3","5","5","4","0","0","0","3","0","4","2","4","1","3","2","5","2","0","0","1","2","3","4","3","4","1","3","3","1","3","6","1","5","5","5","3","3","4","5","5","2","4","4","1","1","0","0","agree","100.80000001192093","","","","","","","","<div style=""font-size:60px;"">?</div>","76","20","1","0.8"
"image-keyboard-response","74","920245","0.0-11.0-0.20","3y1zorqe7jrzdw1","1","60fda481a96c200924ca0ea9","20","04/2001","single","english","N/A","Female","Hispanic or Latino or Spanish Origin of any race","No","CEGEP, non-university college, trade school or equivalent","Yes, but not at a university","N/A","N/A","N/A","9","1","5","2","1","0.4666666880000001","stim/T020.jpg","76","76","0.28333334200000004","3","1","2","","2","0","3","2","3","2","3","3","2","3","1","2","2","2","3","5","5","4","0","0","0","3","0","4","2","4","1","3","2","5","2","0","0","1","2","3","4","3","4","1","3","3","1","3","6","1","5","5","5","3","3","4","5","5","2","4","4","1","1","0","0","agree","null","","","","","","","","stim/T170.jpg","null","","",""
"html-keyboard-response","75","920288","0.0-11.0-1.20","3y1zorqe7jrzdw1","1","60fda481a96c200924ca0ea9","20","04/2001","single","english","N/A","Female","Hispanic or Latino or Spanish Origin of any race","No","CEGEP, non-university college, trade school or equivalent","Yes, but not at a university","N/A","N/A","N/A","9","1","5","2","1","0.4666666880000001","stim/T020.jpg","76","76","0.28333334200000004","3","1","2","","2","0","3","2","3","2","3","3","2","3","1","2","2","2","3","5","5","4","0","0","0","3","0","4","2","4","1","3","2","5","2","0","0","1","2","3","4","3","4","1","3","3","1","3","6","1","5","5","5","3","3","4","5","5","2","4","4","1","1","0","0","agree","42","","","","","","","","<div style=""font-size:60px;"">?</div>","65","21","1","0.8"
"image-keyboard-response","76","921310","0.0-11.0-0.21","3y1zorqe7jrzdw1","1","60fda481a96c200924ca0ea9","20","04/2001","single","english","N/A","Female","Hispanic or Latino or Spanish Origin of any race","No","CEGEP, non-university college, trade school or equivalent","Yes, but not at a university","N/A","N/A","N/A","9","1","5","2","1","0.4666666880000001","stim/T020.jpg","76","76","0.28333334200000004","3","1","2","","2","0","3","2","3","2","3","3","2","3","1","2","2","2","3","5","5","4","0","0","0","3","0","4","2","4","1","3","2","5","2","0","0","1","2","3","4","3","4","1","3","3","1","3","6","1","5","5","5","3","3","4","5","5","2","4","4","1","1","0","0","agree","null","","","","","","","","stim/H170.jpg","null","","",""
"html-keyboard-response","77","921382","0.0-11.0-1.21","3y1zorqe7jrzdw1","1","60fda481a96c200924ca0ea9","20","04/2001","single","english","N/A","Female","Hispanic or Latino or Spanish Origin of any race","No","CEGEP, non-university college, trade school or equivalent","Yes, but not at a university","N/A","N/A","N/A","9","1","5","2","1","0.4666666880000001","stim/T020.jpg","76","76","0.28333334200000004","3","1","2","","2","0","3","2","3","2","3","3","2","3","1","2","2","2","3","5","5","4","0","0","0","3","0","4","2","4","1","3","2","5","2","0","0","1","2","3","4","3","4","1","3","3","1","3","6","1","5","5","5","3","3","4","5","5","2","4","4","1","1","0","0","agree","69.80000001192093","","","","","","","","<div style=""font-size:60px;"">?</div>","76","22","1","0.8"
"image-keyboard-response","78","922400","0.0-11.0-0.22","3y1zorqe7jrzdw1","1","60fda481a96c200924ca0ea9","20","04/2001","single","english","N/A","Female","Hispanic or Latino or Spanish Origin of any race","No","CEGEP, non-university college, trade school or equivalent","Yes, but not at a university","N/A","N/A","N/A","9","1","5","2","1","0.4666666880000001","stim/T020.jpg","76","76","0.28333334200000004","3","1","2","","2","0","3","2","3","2","3","3","2","3","1","2","2","2","3","5","5","4","0","0","0","3","0","4","2","4","1","3","2","5","2","0","0","1","2","3","4","3","4","1","3","3","1","3","6","1","5","5","5","3","3","4","5","5","2","4","4","1","1","0","0","agree","null","","","","","","","","stim/H020.jpg","null","","",""
"html-keyboard-response","79","922415","0.0-11.0-1.22","3y1zorqe7jrzdw1","1","60fda481a96c200924ca0ea9","20","04/2001","single","english","N/A","Female","Hispanic or Latino or Spanish Origin of any race","No","CEGEP, non-university college, trade school or equivalent","Yes, but not at a university","N/A","N/A","N/A","9","1","5","2","1","0.4666666880000001","stim/T020.jpg","76","76","0.28333334200000004","3","1","2","","2","0","3","2","3","2","3","3","2","3","1","2","2","2","3","5","5","4","0","0","0","3","0","4","2","4","1","3","2","5","2","0","0","1","2","3","4","3","4","1","3","3","1","3","6","1","5","5","5","3","3","4","5","5","2","4","4","1","1","0","0","agree","13.199999988079071","","","","","","","","<div style=""font-size:60px;"">?</div>","76","23","1","0.8"
"image-keyboard-response","80","923427","0.0-11.0-0.23","3y1zorqe7jrzdw1","1","60fda481a96c200924ca0ea9","20","04/2001","single","english","N/A","Female","Hispanic or Latino or Spanish Origin of any race","No","CEGEP, non-university college, trade school or equivalent","Yes, but not at a university","N/A","N/A","N/A","9","1","5","2","1","0.4666666880000001","stim/T020.jpg","76","76","0.28333334200000004","3","1","2","","2","0","3","2","3","2","3","3","2","3","1","2","2","2","3","5","5","4","0","0","0","3","0","4","2","4","1","3","2","5","2","0","0","1","2","3","4","3","4","1","3","3","1","3","6","1","5","5","5","3","3","4","5","5","2","4","4","1","1","0","0","agree","null","","","","","","","","stim/H140.jpg","null","","",""
"html-keyboard-response","81","923464","0.0-11.0-1.23","3y1zorqe7jrzdw1","1","60fda481a96c200924ca0ea9","20","04/2001","single","english","N/A","Female","Hispanic or Latino or Spanish Origin of any race","No","CEGEP, non-university college, trade school or equivalent","Yes, but not at a university","N/A","N/A","N/A","9","1","5","2","1","0.4666666880000001","stim/T020.jpg","76","76","0.28333334200000004","3","1","2","","2","0","3","2","3","2","3","3","2","3","1","2","2","2","3","5","5","4","0","0","0","3","0","4","2","4","1","3","2","5","2","0","0","1","2","3","4","3","4","1","3","3","1","3","6","1","5","5","5","3","3","4","5","5","2","4","4","1","1","0","0","agree","35.80000001192093","","","","","","","","<div style=""font-size:60px;"">?</div>","76","24","1","0.8"
"image-keyboard-response","82","924478","0.0-11.0-0.24","3y1zorqe7jrzdw1","1","60fda481a96c200924ca0ea9","20","04/2001","single","english","N/A","Female","Hispanic or Latino or Spanish Origin of any race","No","CEGEP, non-university college, trade school or equivalent","Yes, but not at a university","N/A","N/A","N/A","9","1","5","2","1","0.4666666880000001","stim/T020.jpg","76","76","0.28333334200000004","3","1","2","","2","0","3","2","3","2","3","3","2","3","1","2","2","2","3","5","5","4","0","0","0","3","0","4","2","4","1","3","2","5","2","0","0","1","2","3","4","3","4","1","3","3","1","3","6","1","5","5","5","3","3","4","5","5","2","4","4","1","1","0","0","agree","null","","","","","","","","stim/H130.jpg","null","","",""
"html-keyboard-response","83","925624","0.0-11.0-1.24","3y1zorqe7jrzdw1","1","60fda481a96c200924ca0ea9","20","04/2001","single","english","N/A","Female","Hispanic or Latino or Spanish Origin of any race","No","CEGEP, non-university college, trade school or equivalent","Yes, but not at a university","N/A","N/A","N/A","9","1","5","2","1","0.4666666880000001","stim/T020.jpg","76","76","0.28333334200000004","3","1","2","","2","0","3","2","3","2","3","3","2","3","1","2","2","2","3","5","5","4","0","0","0","3","0","4","2","4","1","3","2","5","2","0","0","1","2","3","4","3","4","1","3","3","1","3","6","1","5","5","5","3","3","4","5","5","2","4","4","1","1","0","0","agree","1144.3999999761581","","","","","","","","<div style=""font-size:60px;"">?</div>","76","25","1","0.8"
"image-keyboard-response","84","926628","0.0-11.0-0.25","3y1zorqe7jrzdw1","1","60fda481a96c200924ca0ea9","20","04/2001","single","english","N/A","Female","Hispanic or Latino or Spanish Origin of any race","No","CEGEP, non-university college, trade school or equivalent","Yes, but not at a university","N/A","N/A","N/A","9","1","5","2","1","0.4666666880000001","stim/T020.jpg","76","76","0.28333334200000004","3","1","2","","2","0","3","2","3","2","3","3","2","3","1","2","2","2","3","5","5","4","0","0","0","3","0","4","2","4","1","3","2","5","2","0","0","1","2","3","4","3","4","1","3","3","1","3","6","1","5","5","5","3","3","4","5","5","2","4","4","1","1","0","0","agree","null","","","","","","","","stim/H120.jpg","null","","",""
"html-keyboard-response","85","926936","0.0-11.0-1.25","3y1zorqe7jrzdw1","1","60fda481a96c200924ca0ea9","20","04/2001","single","english","N/A","Female","Hispanic or Latino or Spanish Origin of any race","No","CEGEP, non-university college, trade school or equivalent","Yes, but not at a university","N/A","N/A","N/A","9","1","5","2","1","0.4666666880000001","stim/T020.jpg","76","76","0.28333334200000004","3","1","2","","2","0","3","2","3","2","3","3","2","3","1","2","2","2","3","5","5","4","0","0","0","3","0","4","2","4","1","3","2","5","2","0","0","1","2","3","4","3","4","1","3","3","1","3","6","1","5","5","5","3","3","4","5","5","2","4","4","1","1","0","0","agree","305.89999997615814","","","","","","","","<div style=""font-size:60px;"">?</div>","76","26","1","0.8"
"image-keyboard-response","86","927949","0.0-11.0-0.26","3y1zorqe7jrzdw1","1","60fda481a96c200924ca0ea9","20","04/2001","single","english","N/A","Female","Hispanic or Latino or Spanish Origin of any race","No","CEGEP, non-university college, trade school or equivalent","Yes, but not at a university","N/A","N/A","N/A","9","1","5","2","1","0.4666666880000001","stim/T020.jpg","76","76","0.28333334200000004","3","1","2","","2","0","3","2","3","2","3","3","2","3","1","2","2","2","3","5","5","4","0","0","0","3","0","4","2","4","1","3","2","5","2","0","0","1","2","3","4","3","4","1","3","3","1","3","6","1","5","5","5","3","3","4","5","5","2","4","4","1","1","0","0","agree","null","","","","","","","","stim/H140.jpg","null","","",""
"html-keyboard-response","87","928207","0.0-11.0-1.26","3y1zorqe7jrzdw1","1","60fda481a96c200924ca0ea9","20","04/2001","single","english","N/A","Female","Hispanic or Latino or Spanish Origin of any race","No","CEGEP, non-university college, trade school or equivalent","Yes, but not at a university","N/A","N/A","N/A","9","1","5","2","1","0.4666666880000001","stim/T020.jpg","76","76","0.28333334200000004","3","1","2","","2","0","3","2","3","2","3","3","2","3","1","2","2","2","3","5","5","4","0","0","0","3","0","4","2","4","1","3","2","5","2","0","0","1","2","3","4","3","4","1","3","3","1","3","6","1","5","5","5","3","3","4","5","5","2","4","4","1","1","0","0","agree","256.5","","","","","","","","<div style=""font-size:60px;"">?</div>","76","27","1","0.8"
"image-keyboard-response","88","929227","0.0-11.0-0.27","3y1zorqe7jrzdw1","1","60fda481a96c200924ca0ea9","20","04/2001","single","english","N/A","Female","Hispanic or Latino or Spanish Origin of any race","No","CEGEP, non-university college, trade school or equivalent","Yes, but not at a university","N/A","N/A","N/A","9","1","5","2","1","0.4666666880000001","stim/T020.jpg","76","76","0.28333334200000004","3","1","2","","2","0","3","2","3","2","3","3","2","3","1","2","2","2","3","5","5","4","0","0","0","3","0","4","2","4","1","3","2","5","2","0","0","1","2","3","4","3","4","1","3","3","1","3","6","1","5","5","5","3","3","4","5","5","2","4","4","1","1","0","0","agree","null","","","","","","","","stim/H220.jpg","null","","",""
"html-keyboard-response","89","929639","0.0-11.0-1.27","3y1zorqe7jrzdw1","1","60fda481a96c200924ca0ea9","20","04/2001","single","english","N/A","Female","Hispanic or Latino or Spanish Origin of any race","No","CEGEP, non-university college, trade school or equivalent","Yes, but not at a university","N/A","N/A","N/A","9","1","5","2","1","0.4666666880000001","stim/T020.jpg","76","76","0.28333334200000004","3","1","2","","2","0","3","2","3","2","3","3","2","3","1","2","2","2","3","5","5","4","0","0","0","3","0","4","2","4","1","3","2","5","2","0","0","1","2","3","4","3","4","1","3","3","1","3","6","1","5","5","5","3","3","4","5","5","2","4","4","1","1","0","0","agree","409.5999999642372","","","","","","","","<div style=""font-size:60px;"">?</div>","76","28","1","0.8"
"image-keyboard-response","90","930667","0.0-11.0-0.28","3y1zorqe7jrzdw1","1","60fda481a96c200924ca0ea9","20","04/2001","single","english","N/A","Female","Hispanic or Latino or Spanish Origin of any race","No","CEGEP, non-university college, trade school or equivalent","Yes, but not at a university","N/A","N/A","N/A","9","1","5","2","1","0.4666666880000001","stim/T020.jpg","76","76","0.28333334200000004","3","1","2","","2","0","3","2","3","2","3","3","2","3","1","2","2","2","3","5","5","4","0","0","0","3","0","4","2","4","1","3","2","5","2","0","0","1","2","3","4","3","4","1","3","3","1","3","6","1","5","5","5","3","3","4","5","5","2","4","4","1","1","0","0","agree","null","","","","","","","","stim/H230.jpg","null","","",""
"html-keyboard-response","91","931044","0.0-11.0-1.28","3y1zorqe7jrzdw1","1","60fda481a96c200924ca0ea9","20","04/2001","single","english","N/A","Female","Hispanic or Latino or Spanish Origin of any race","No","CEGEP, non-university college, trade school or equivalent","Yes, but not at a university","N/A","N/A","N/A","9","1","5","2","1","0.4666666880000001","stim/T020.jpg","76","76","0.28333334200000004","3","1","2","","2","0","3","2","3","2","3","3","2","3","1","2","2","2","3","5","5","4","0","0","0","3","0","4","2","4","1","3","2","5","2","0","0","1","2","3","4","3","4","1","3","3","1","3","6","1","5","5","5","3","3","4","5","5","2","4","4","1","1","0","0","agree","375.39999997615814","","","","","","","","<div style=""font-size:60px;"">?</div>","76","29","1","0.8"
"image-keyboard-response","92","932073","0.0-11.0-0.29","3y1zorqe7jrzdw1","1","60fda481a96c200924ca0ea9","20","04/2001","single","english","N/A","Female","Hispanic or Latino or Spanish Origin of any race","No","CEGEP, non-university college, trade school or equivalent","Yes, but not at a university","N/A","N/A","N/A","9","1","5","2","1","0.4666666880000001","stim/T020.jpg","76","76","0.28333334200000004","3","1","2","","2","0","3","2","3","2","3","3","2","3","1","2","2","2","3","5","5","4","0","0","0","3","0","4","2","4","1","3","2","5","2","0","0","1","2","3","4","3","4","1","3","3","1","3","6","1","5","5","5","3","3","4","5","5","2","4","4","1","1","0","0","agree","null","","","","","","","","stim/H040.jpg","null","","",""
"html-keyboard-response","93","932215","0.0-11.0-1.29","3y1zorqe7jrzdw1","1","60fda481a96c200924ca0ea9","20","04/2001","single","english","N/A","Female","Hispanic or Latino or Spanish Origin of any race","No","CEGEP, non-university college, trade school or equivalent","Yes, but not at a university","N/A","N/A","N/A","9","1","5","2","1","0.4666666880000001","stim/T020.jpg","76","76","0.28333334200000004","3","1","2","","2","0","3","2","3","2","3","3","2","3","1","2","2","2","3","5","5","4","0","0","0","3","0","4","2","4","1","3","2","5","2","0","0","1","2","3","4","3","4","1","3","3","1","3","6","1","5","5","5","3","3","4","5","5","2","4","4","1","1","0","0","agree","139.9000000357628","","","","","","","","<div style=""font-size:60px;"">?</div>","65","30","1","0.8"
"image-keyboard-response","94","933230","0.0-11.0-0.30","3y1zorqe7jrzdw1","1","60fda481a96c200924ca0ea9","20","04/2001","single","english","N/A","Female","Hispanic or Latino or Spanish Origin of any race","No","CEGEP, non-university college, trade school or equivalent","Yes, but not at a university","N/A","N/A","N/A","9","1","5","2","1","0.4666666880000001","stim/T020.jpg","76","76","0.28333334200000004","3","1","2","","2","0","3","2","3","2","3","3","2","3","1","2","2","2","3","5","5","4","0","0","0","3","0","4","2","4","1","3","2","5","2","0","0","1","2","3","4","3","4","1","3","3","1","3","6","1","5","5","5","3","3","4","5","5","2","4","4","1","1","0","0","agree","null","","","","","","","","stim/T180.jpg","null","","",""
"html-keyboard-response","95","933533","0.0-11.0-1.30","3y1zorqe7jrzdw1","1","60fda481a96c200924ca0ea9","20","04/2001","single","english","N/A","Female","Hispanic or Latino or Spanish Origin of any race","No","CEGEP, non-university college, trade school or equivalent","Yes, but not at a university","N/A","N/A","N/A","9","1","5","2","1","0.4666666880000001","stim/T020.jpg","76","76","0.28333334200000004","3","1","2","","2","0","3","2","3","2","3","3","2","3","1","2","2","2","3","5","5","4","0","0","0","3","0","4","2","4","1","3","2","5","2","0","0","1","2","3","4","3","4","1","3","3","1","3","6","1","5","5","5","3","3","4","5","5","2","4","4","1","1","0","0","agree","300.80000001192093","","","","","","","","<div style=""font-size:60px;"">?</div>","65","31","1","0.8"
"image-keyboard-response","96","934558","0.0-11.0-0.31","3y1zorqe7jrzdw1","1","60fda481a96c200924ca0ea9","20","04/2001","single","english","N/A","Female","Hispanic or Latino or Spanish Origin of any race","No","CEGEP, non-university college, trade school or equivalent","Yes, but not at a university","N/A","N/A","N/A","9","1","5","2","1","0.4666666880000001","stim/T020.jpg","76","76","0.28333334200000004","3","1","2","","2","0","3","2","3","2","3","3","2","3","1","2","2","2","3","5","5","4","0","0","0","3","0","4","2","4","1","3","2","5","2","0","0","1","2","3","4","3","4","1","3","3","1","3","6","1","5","5","5","3","3","4","5","5","2","4","4","1","1","0","0","agree","null","","","","","","","","stim/T240.jpg","null","","",""
"html-keyboard-response","97","934605","0.0-11.0-1.31","3y1zorqe7jrzdw1","1","60fda481a96c200924ca0ea9","20","04/2001","single","english","N/A","Female","Hispanic or Latino or Spanish Origin of any race","No","CEGEP, non-university college, trade school or equivalent","Yes, but not at a university","N/A","N/A","N/A","9","1","5","2","1","0.4666666880000001","stim/T020.jpg","76","76","0.28333334200000004","3","1","2","","2","0","3","2","3","2","3","3","2","3","1","2","2","2","3","5","5","4","0","0","0","3","0","4","2","4","1","3","2","5","2","0","0","1","2","3","4","3","4","1","3","3","1","3","6","1","5","5","5","3","3","4","5","5","2","4","4","1","1","0","0","agree","44.69999998807907","","","","","","","","<div style=""font-size:60px;"">?</div>","65","32","1","0.8"
"image-keyboard-response","98","935618","0.0-11.0-0.32","3y1zorqe7jrzdw1","1","60fda481a96c200924ca0ea9","20","04/2001","single","english","N/A","Female","Hispanic or Latino or Spanish Origin of any race","No","CEGEP, non-university college, trade school or equivalent","Yes, but not at a university","N/A","N/A","N/A","9","1","5","2","1","0.4666666880000001","stim/T020.jpg","76","76","0.28333334200000004","3","1","2","","2","0","3","2","3","2","3","3","2","3","1","2","2","2","3","5","5","4","0","0","0","3","0","4","2","4","1","3","2","5","2","0","0","1","2","3","4","3","4","1","3","3","1","3","6","1","5","5","5","3","3","4","5","5","2","4","4","1","1","0","0","agree","null","","","","","","","","stim/H040.jpg","null","","",""
"html-keyboard-response","99","935726","0.0-11.0-1.32","3y1zorqe7jrzdw1","1","60fda481a96c200924ca0ea9","20","04/2001","single","english","N/A","Female","Hispanic or Latino or Spanish Origin of any race","No","CEGEP, non-university college, trade school or equivalent","Yes, but not at a university","N/A","N/A","N/A","9","1","5","2","1","0.4666666880000001","stim/T020.jpg","76","76","0.28333334200000004","3","1","2","","2","0","3","2","3","2","3","3","2","3","1","2","2","2","3","5","5","4","0","0","0","3","0","4","2","4","1","3","2","5","2","0","0","1","2","3","4","3","4","1","3","3","1","3","6","1","5","5","5","3","3","4","5","5","2","4","4","1","1","0","0","agree","106.60000002384186","","","","","","","","<div style=""font-size:60px;"">?</div>","76","33","1","0.8"
"image-keyboard-response","100","936749","0.0-11.0-0.33","3y1zorqe7jrzdw1","1","60fda481a96c200924ca0ea9","20","04/2001","single","english","N/A","Female","Hispanic or Latino or Spanish Origin of any race","No","CEGEP, non-university college, trade school or equivalent","Yes, but not at a university","N/A","N/A","N/A","9","1","5","2","1","0.4666666880000001","stim/T020.jpg","76","76","0.28333334200000004","3","1","2","","2","0","3","2","3","2","3","3","2","3","1","2","2","2","3","5","5","4","0","0","0","3","0","4","2","4","1","3","2","5","2","0","0","1","2","3","4","3","4","1","3","3","1","3","6","1","5","5","5","3","3","4","5","5","2","4","4","1","1","0","0","agree","null","","","","","","","","stim/H270.jpg","null","","",""
"html-keyboard-response","101","937100","0.0-11.0-1.33","3y1zorqe7jrzdw1","1","60fda481a96c200924ca0ea9","20","04/2001","single","english","N/A","Female","Hispanic or Latino or Spanish Origin of any race","No","CEGEP, non-university college, trade school or equivalent","Yes, but not at a university","N/A","N/A","N/A","9","1","5","2","1","0.4666666880000001","stim/T020.jpg","76","76","0.28333334200000004","3","1","2","","2","0","3","2","3","2","3","3","2","3","1","2","2","2","3","5","5","4","0","0","0","3","0","4","2","4","1","3","2","5","2","0","0","1","2","3","4","3","4","1","3","3","1","3","6","1","5","5","5","3","3","4","5","5","2","4","4","1","1","0","0","agree","349.89999997615814","","","","","","","","<div style=""font-size:60px;"">?</div>","76","34","1","0.8"
"image-keyboard-response","102","938127","0.0-11.0-0.34","3y1zorqe7jrzdw1","1","60fda481a96c200924ca0ea9","20","04/2001","single","english","N/A","Female","Hispanic or Latino or Spanish Origin of any race","No","CEGEP, non-university college, trade school or equivalent","Yes, but not at a university","N/A","N/A","N/A","9","1","5","2","1","0.4666666880000001","stim/T020.jpg","76","76","0.28333334200000004","3","1","2","","2","0","3","2","3","2","3","3","2","3","1","2","2","2","3","5","5","4","0","0","0","3","0","4","2","4","1","3","2","5","2","0","0","1","2","3","4","3","4","1","3","3","1","3","6","1","5","5","5","3","3","4","5","5","2","4","4","1","1","0","0","agree","null","","","","","","","","stim/H050.jpg","null","","",""
"html-keyboard-response","103","938310","0.0-11.0-1.34","3y1zorqe7jrzdw1","1","60fda481a96c200924ca0ea9","20","04/2001","single","english","N/A","Female","Hispanic or Latino or Spanish Origin of any race","No","CEGEP, non-university college, trade school or equivalent","Yes, but not at a university","N/A","N/A","N/A","9","1","5","2","1","0.4666666880000001","stim/T020.jpg","76","76","0.28333334200000004","3","1","2","","2","0","3","2","3","2","3","3","2","3","1","2","2","2","3","5","5","4","0","0","0","3","0","4","2","4","1","3","2","5","2","0","0","1","2","3","4","3","4","1","3","3","1","3","6","1","5","5","5","3","3","4","5","5","2","4","4","1","1","0","0","agree","181.80000001192093","","","","","","","","<div style=""font-size:60px;"">?</div>","76","35","1","0.8"
"image-keyboard-response","104","939324","0.0-11.0-0.35","3y1zorqe7jrzdw1","1","60fda481a96c200924ca0ea9","20","04/2001","single","english","N/A","Female","Hispanic or Latino or Spanish Origin of any race","No","CEGEP, non-university college, trade school or equivalent","Yes, but not at a university","N/A","N/A","N/A","9","1","5","2","1","0.4666666880000001","stim/T020.jpg","76","76","0.28333334200000004","3","1","2","","2","0","3","2","3","2","3","3","2","3","1","2","2","2","3","5","5","4","0","0","0","3","0","4","2","4","1","3","2","5","2","0","0","1","2","3","4","3","4","1","3","3","1","3","6","1","5","5","5","3","3","4","5","5","2","4","4","1","1","0","0","agree","null","","","","","","","","stim/H190.jpg","null","","",""
"html-keyboard-response","105","939568","0.0-11.0-1.35","3y1zorqe7jrzdw1","1","60fda481a96c200924ca0ea9","20","04/2001","single","english","N/A","Female","Hispanic or Latino or Spanish Origin of any race","No","CEGEP, non-university college, trade school or equivalent","Yes, but not at a university","N/A","N/A","N/A","9","1","5","2","1","0.4666666880000001","stim/T020.jpg","76","76","0.28333334200000004","3","1","2","","2","0","3","2","3","2","3","3","2","3","1","2","2","2","3","5","5","4","0","0","0","3","0","4","2","4","1","3","2","5","2","0","0","1","2","3","4","3","4","1","3","3","1","3","6","1","5","5","5","3","3","4","5","5","2","4","4","1","1","0","0","agree","242.10000002384186","","","","","","","","<div style=""font-size:60px;"">?</div>","76","36","1","0.8"
"image-keyboard-response","106","940591","0.0-11.0-0.36","3y1zorqe7jrzdw1","1","60fda481a96c200924ca0ea9","20","04/2001","single","english","N/A","Female","Hispanic or Latino or Spanish Origin of any race","No","CEGEP, non-university college, trade school or equivalent","Yes, but not at a university","N/A","N/A","N/A","9","1","5","2","1","0.4666666880000001","stim/T020.jpg","76","76","0.28333334200000004","3","1","2","","2","0","3","2","3","2","3","3","2","3","1","2","2","2","3","5","5","4","0","0","0","3","0","4","2","4","1","3","2","5","2","0","0","1","2","3","4","3","4","1","3","3","1","3","6","1","5","5","5","3","3","4","5","5","2","4","4","1","1","0","0","agree","null","","","","","","","","stim/H100.jpg","null","","",""
"html-keyboard-response","107","940858","0.0-11.0-1.36","3y1zorqe7jrzdw1","1","60fda481a96c200924ca0ea9","20","04/2001","single","english","N/A","Female","Hispanic or Latino or Spanish Origin of any race","No","CEGEP, non-university college, trade school or equivalent","Yes, but not at a university","N/A","N/A","N/A","9","1","5","2","1","0.4666666880000001","stim/T020.jpg","76","76","0.28333334200000004","3","1","2","","2","0","3","2","3","2","3","3","2","3","1","2","2","2","3","5","5","4","0","0","0","3","0","4","2","4","1","3","2","5","2","0","0","1","2","3","4","3","4","1","3","3","1","3","6","1","5","5","5","3","3","4","5","5","2","4","4","1","1","0","0","agree","264.7999999523163","","","","","","","","<div style=""font-size:60px;"">?</div>","76","37","1","0.8"
"image-keyboard-response","108","941873","0.0-11.0-0.37","3y1zorqe7jrzdw1","1","60fda481a96c200924ca0ea9","20","04/2001","single","english","N/A","Female","Hispanic or Latino or Spanish Origin of any race","No","CEGEP, non-university college, trade school or equivalent","Yes, but not at a university","N/A","N/A","N/A","9","1","5","2","1","0.4666666880000001","stim/T020.jpg","76","76","0.28333334200000004","3","1","2","","2","0","3","2","3","2","3","3","2","3","1","2","2","2","3","5","5","4","0","0","0","3","0","4","2","4","1","3","2","5","2","0","0","1","2","3","4","3","4","1","3","3","1","3","6","1","5","5","5","3","3","4","5","5","2","4","4","1","1","0","0","agree","null","","","","","","","","stim/H260.jpg","null","","",""
"html-keyboard-response","109","942037","0.0-11.0-1.37","3y1zorqe7jrzdw1","1","60fda481a96c200924ca0ea9","20","04/2001","single","english","N/A","Female","Hispanic or Latino or Spanish Origin of any race","No","CEGEP, non-university college, trade school or equivalent","Yes, but not at a university","N/A","N/A","N/A","9","1","5","2","1","0.4666666880000001","stim/T020.jpg","76","76","0.28333334200000004","3","1","2","","2","0","3","2","3","2","3","3","2","3","1","2","2","2","3","5","5","4","0","0","0","3","0","4","2","4","1","3","2","5","2","0","0","1","2","3","4","3","4","1","3","3","1","3","6","1","5","5","5","3","3","4","5","5","2","4","4","1","1","0","0","agree","162.30000001192093","","","","","","","","<div style=""font-size:60px;"">?</div>","76","38","1","0.8"
"image-keyboard-response","110","943053","0.0-11.0-0.38","3y1zorqe7jrzdw1","1","60fda481a96c200924ca0ea9","20","04/2001","single","english","N/A","Female","Hispanic or Latino or Spanish Origin of any race","No","CEGEP, non-university college, trade school or equivalent","Yes, but not at a university","N/A","N/A","N/A","9","1","5","2","1","0.4666666880000001","stim/T020.jpg","76","76","0.28333334200000004","3","1","2","","2","0","3","2","3","2","3","3","2","3","1","2","2","2","3","5","5","4","0","0","0","3","0","4","2","4","1","3","2","5","2","0","0","1","2","3","4","3","4","1","3","3","1","3","6","1","5","5","5","3","3","4","5","5","2","4","4","1","1","0","0","agree","null","","","","","","","","stim/H200.jpg","null","","",""
"html-keyboard-response","111","943192","0.0-11.0-1.38","3y1zorqe7jrzdw1","1","60fda481a96c200924ca0ea9","20","04/2001","single","english","N/A","Female","Hispanic or Latino or Spanish Origin of any race","No","CEGEP, non-university college, trade school or equivalent","Yes, but not at a university","N/A","N/A","N/A","9","1","5","2","1","0.4666666880000001","stim/T020.jpg","76","76","0.28333334200000004","3","1","2","","2","0","3","2","3","2","3","3","2","3","1","2","2","2","3","5","5","4","0","0","0","3","0","4","2","4","1","3","2","5","2","0","0","1","2","3","4","3","4","1","3","3","1","3","6","1","5","5","5","3","3","4","5","5","2","4","4","1","1","0","0","agree","137","","","","","","","","<div style=""font-size:60px;"">?</div>","76","39","1","0.8"
"image-keyboard-response","112","944208","0.0-11.0-0.39","3y1zorqe7jrzdw1","1","60fda481a96c200924ca0ea9","20","04/2001","single","english","N/A","Female","Hispanic or Latino or Spanish Origin of any race","No","CEGEP, non-university college, trade school or equivalent","Yes, but not at a university","N/A","N/A","N/A","9","1","5","2","1","0.4666666880000001","stim/T020.jpg","76","76","0.28333334200000004","3","1","2","","2","0","3","2","3","2","3","3","2","3","1","2","2","2","3","5","5","4","0","0","0","3","0","4","2","4","1","3","2","5","2","0","0","1","2","3","4","3","4","1","3","3","1","3","6","1","5","5","5","3","3","4","5","5","2","4","4","1","1","0","0","agree","null","","","","","","","","stim/H300.jpg","null","","",""
"html-keyboard-response","113","944296","0.0-11.0-1.39","3y1zorqe7jrzdw1","1","60fda481a96c200924ca0ea9","20","04/2001","single","english","N/A","Female","Hispanic or Latino or Spanish Origin of any race","No","CEGEP, non-university college, trade school or equivalent","Yes, but not at a university","N/A","N/A","N/A","9","1","5","2","1","0.4666666880000001","stim/T020.jpg","76","76","0.28333334200000004","3","1","2","","2","0","3","2","3","2","3","3","2","3","1","2","2","2","3","5","5","4","0","0","0","3","0","4","2","4","1","3","2","5","2","0","0","1","2","3","4","3","4","1","3","3","1","3","6","1","5","5","5","3","3","4","5","5","2","4","4","1","1","0","0","agree","86.69999998807907","","","","","","","","<div style=""font-size:60px;"">?</div>","76","40","1","0.8"
"image-keyboard-response","114","945314","0.0-11.0-0.40","3y1zorqe7jrzdw1","1","60fda481a96c200924ca0ea9","20","04/2001","single","english","N/A","Female","Hispanic or Latino or Spanish Origin of any race","No","CEGEP, non-university college, trade school or equivalent","Yes, but not at a university","N/A","N/A","N/A","9","1","5","2","1","0.4666666880000001","stim/T020.jpg","76","76","0.28333334200000004","3","1","2","","2","0","3","2","3","2","3","3","2","3","1","2","2","2","3","5","5","4","0","0","0","3","0","4","2","4","1","3","2","5","2","0","0","1","2","3","4","3","4","1","3","3","1","3","6","1","5","5","5","3","3","4","5","5","2","4","4","1","1","0","0","agree","null","","","","","","","","stim/T240.jpg","null","","",""
"html-keyboard-response","115","946348","0.0-11.0-1.40","3y1zorqe7jrzdw1","1","60fda481a96c200924ca0ea9","20","04/2001","single","english","N/A","Female","Hispanic or Latino or Spanish Origin of any race","No","CEGEP, non-university college, trade school or equivalent","Yes, but not at a university","N/A","N/A","N/A","9","1","5","2","1","0.4666666880000001","stim/T020.jpg","76","76","0.28333334200000004","3","1","2","","2","0","3","2","3","2","3","3","2","3","1","2","2","2","3","5","5","4","0","0","0","3","0","4","2","4","1","3","2","5","2","0","0","1","2","3","4","3","4","1","3","3","1","3","6","1","5","5","5","3","3","4","5","5","2","4","4","1","1","0","0","agree","1034.1000000238419","","","","","","","","<div style=""font-size:60px;"">?</div>","65","41","1","0.8"
"image-keyboard-response","116","947358","0.0-11.0-0.41","3y1zorqe7jrzdw1","1","60fda481a96c200924ca0ea9","20","04/2001","single","english","N/A","Female","Hispanic or Latino or Spanish Origin of any race","No","CEGEP, non-university college, trade school or equivalent","Yes, but not at a university","N/A","N/A","N/A","9","1","5","2","1","0.4666666880000001","stim/T020.jpg","76","76","0.28333334200000004","3","1","2","","2","0","3","2","3","2","3","3","2","3","1","2","2","2","3","5","5","4","0","0","0","3","0","4","2","4","1","3","2","5","2","0","0","1","2","3","4","3","4","1","3","3","1","3","6","1","5","5","5","3","3","4","5","5","2","4","4","1","1","0","0","agree","null","","","","","","","","stim/H050.jpg","null","","",""
"html-keyboard-response","117","948143","0.0-11.0-1.41","3y1zorqe7jrzdw1","1","60fda481a96c200924ca0ea9","20","04/2001","single","english","N/A","Female","Hispanic or Latino or Spanish Origin of any race","No","CEGEP, non-university college, trade school or equivalent","Yes, but not at a university","N/A","N/A","N/A","9","1","5","2","1","0.4666666880000001","stim/T020.jpg","76","76","0.28333334200000004","3","1","2","","2","0","3","2","3","2","3","3","2","3","1","2","2","2","3","5","5","4","0","0","0","3","0","4","2","4","1","3","2","5","2","0","0","1","2","3","4","3","4","1","3","3","1","3","6","1","5","5","5","3","3","4","5","5","2","4","4","1","1","0","0","agree","782.8000000119209","","","","","","","","<div style=""font-size:60px;"">?</div>","76","42","1","0.8"
"image-keyboard-response","118","949153","0.0-11.0-0.42","3y1zorqe7jrzdw1","1","60fda481a96c200924ca0ea9","20","04/2001","single","english","N/A","Female","Hispanic or Latino or Spanish Origin of any race","No","CEGEP, non-university college, trade school or equivalent","Yes, but not at a university","N/A","N/A","N/A","9","1","5","2","1","0.4666666880000001","stim/T020.jpg","76","76","0.28333334200000004","3","1","2","","2","0","3","2","3","2","3","3","2","3","1","2","2","2","3","5","5","4","0","0","0","3","0","4","2","4","1","3","2","5","2","0","0","1","2","3","4","3","4","1","3","3","1","3","6","1","5","5","5","3","3","4","5","5","2","4","4","1","1","0","0","agree","null","","","","","","","","stim/H030.jpg","null","","",""
"html-keyboard-response","119","949339","0.0-11.0-1.42","3y1zorqe7jrzdw1","1","60fda481a96c200924ca0ea9","20","04/2001","single","english","N/A","Female","Hispanic or Latino or Spanish Origin of any race","No","CEGEP, non-university college, trade school or equivalent","Yes, but not at a university","N/A","N/A","N/A","9","1","5","2","1","0.4666666880000001","stim/T020.jpg","76","76","0.28333334200000004","3","1","2","","2","0","3","2","3","2","3","3","2","3","1","2","2","2","3","5","5","4","0","0","0","3","0","4","2","4","1","3","2","5","2","0","0","1","2","3","4","3","4","1","3","3","1","3","6","1","5","5","5","3","3","4","5","5","2","4","4","1","1","0","0","agree","184.19999998807907","","","","","","","","<div style=""font-size:60px;"">?</div>","76","43","1","0.8"
"image-keyboard-response","120","950358","0.0-11.0-0.43","3y1zorqe7jrzdw1","1","60fda481a96c200924ca0ea9","20","04/2001","single","english","N/A","Female","Hispanic or Latino or Spanish Origin of any race","No","CEGEP, non-university college, trade school or equivalent","Yes, but not at a university","N/A","N/A","N/A","9","1","5","2","1","0.4666666880000001","stim/T020.jpg","76","76","0.28333334200000004","3","1","2","","2","0","3","2","3","2","3","3","2","3","1","2","2","2","3","5","5","4","0","0","0","3","0","4","2","4","1","3","2","5","2","0","0","1","2","3","4","3","4","1","3","3","1","3","6","1","5","5","5","3","3","4","5","5","2","4","4","1","1","0","0","agree","null","","","","","","","","stim/H280.jpg","null","","",""
"html-keyboard-response","121","951393","0.0-11.0-1.43","3y1zorqe7jrzdw1","1","60fda481a96c200924ca0ea9","20","04/2001","single","english","N/A","Female","Hispanic or Latino or Spanish Origin of any race","No","CEGEP, non-university college, trade school or equivalent","Yes, but not at a university","N/A","N/A","N/A","9","1","5","2","1","0.4666666880000001","stim/T020.jpg","76","76","0.28333334200000004","3","1","2","","2","0","3","2","3","2","3","3","2","3","1","2","2","2","3","5","5","4","0","0","0","3","0","4","2","4","1","3","2","5","2","0","0","1","2","3","4","3","4","1","3","3","1","3","6","1","5","5","5","3","3","4","5","5","2","4","4","1","1","0","0","agree","1033.5","","","","","","","","<div style=""font-size:60px;"">?</div>","76","44","1","0.8"
"image-keyboard-response","122","952402","0.0-11.0-0.44","3y1zorqe7jrzdw1","1","60fda481a96c200924ca0ea9","20","04/2001","single","english","N/A","Female","Hispanic or Latino or Spanish Origin of any race","No","CEGEP, non-university college, trade school or equivalent","Yes, but not at a university","N/A","N/A","N/A","9","1","5","2","1","0.4666666880000001","stim/T020.jpg","76","76","0.28333334200000004","3","1","2","","2","0","3","2","3","2","3","3","2","3","1","2","2","2","3","5","5","4","0","0","0","3","0","4","2","4","1","3","2","5","2","0","0","1","2","3","4","3","4","1","3","3","1","3","6","1","5","5","5","3","3","4","5","5","2","4","4","1","1","0","0","agree","null","","","","","","","","stim/H110.jpg","null","","",""
"html-keyboard-response","123","952921","0.0-11.0-1.44","3y1zorqe7jrzdw1","1","60fda481a96c200924ca0ea9","20","04/2001","single","english","N/A","Female","Hispanic or Latino or Spanish Origin of any race","No","CEGEP, non-university college, trade school or equivalent","Yes, but not at a university","N/A","N/A","N/A","9","1","5","2","1","0.4666666880000001","stim/T020.jpg","76","76","0.28333334200000004","3","1","2","","2","0","3","2","3","2","3","3","2","3","1","2","2","2","3","5","5","4","0","0","0","3","0","4","2","4","1","3","2","5","2","0","0","1","2","3","4","3","4","1","3","3","1","3","6","1","5","5","5","3","3","4","5","5","2","4","4","1","1","0","0","agree","517.8000000119209","","","","","","","","<div style=""font-size:60px;"">?</div>","76","45","1","0.8"
"image-keyboard-response","124","953937","0.0-11.0-0.45","3y1zorqe7jrzdw1","1","60fda481a96c200924ca0ea9","20","04/2001","single","english","N/A","Female","Hispanic or Latino or Spanish Origin of any race","No","CEGEP, non-university college, trade school or equivalent","Yes, but not at a university","N/A","N/A","N/A","9","1","5","2","1","0.4666666880000001","stim/T020.jpg","76","76","0.28333334200000004","3","1","2","","2","0","3","2","3","2","3","3","2","3","1","2","2","2","3","5","5","4","0","0","0","3","0","4","2","4","1","3","2","5","2","0","0","1","2","3","4","3","4","1","3","3","1","3","6","1","5","5","5","3","3","4","5","5","2","4","4","1","1","0","0","agree","null","","","","","","","","stim/H120.jpg","null","","",""
"html-keyboard-response","125","954180","0.0-11.0-1.45","3y1zorqe7jrzdw1","1","60fda481a96c200924ca0ea9","20","04/2001","single","english","N/A","Female","Hispanic or Latino or Spanish Origin of any race","No","CEGEP, non-university college, trade school or equivalent","Yes, but not at a university","N/A","N/A","N/A","9","1","5","2","1","0.4666666880000001","stim/T020.jpg","76","76","0.28333334200000004","3","1","2","","2","0","3","2","3","2","3","3","2","3","1","2","2","2","3","5","5","4","0","0","0","3","0","4","2","4","1","3","2","5","2","0","0","1","2","3","4","3","4","1","3","3","1","3","6","1","5","5","5","3","3","4","5","5","2","4","4","1","1","0","0","agree","240.80000001192093","","","","","","","","<div style=""font-size:60px;"">?</div>","76","46","1","0.8"
"image-keyboard-response","126","955198","0.0-11.0-0.46","3y1zorqe7jrzdw1","1","60fda481a96c200924ca0ea9","20","04/2001","single","english","N/A","Female","Hispanic or Latino or Spanish Origin of any race","No","CEGEP, non-university college, trade school or equivalent","Yes, but not at a university","N/A","N/A","N/A","9","1","5","2","1","0.4666666880000001","stim/T020.jpg","76","76","0.28333334200000004","3","1","2","","2","0","3","2","3","2","3","3","2","3","1","2","2","2","3","5","5","4","0","0","0","3","0","4","2","4","1","3","2","5","2","0","0","1","2","3","4","3","4","1","3","3","1","3","6","1","5","5","5","3","3","4","5","5","2","4","4","1","1","0","0","agree","null","","","","","","","","stim/H140.jpg","null","","",""
"html-keyboard-response","127","955298","0.0-11.0-1.46","3y1zorqe7jrzdw1","1","60fda481a96c200924ca0ea9","20","04/2001","single","english","N/A","Female","Hispanic or Latino or Spanish Origin of any race","No","CEGEP, non-university college, trade school or equivalent","Yes, but not at a university","N/A","N/A","N/A","9","1","5","2","1","0.4666666880000001","stim/T020.jpg","76","76","0.28333334200000004","3","1","2","","2","0","3","2","3","2","3","3","2","3","1","2","2","2","3","5","5","4","0","0","0","3","0","4","2","4","1","3","2","5","2","0","0","1","2","3","4","3","4","1","3","3","1","3","6","1","5","5","5","3","3","4","5","5","2","4","4","1","1","0","0","agree","97.5","","","","","","","","<div style=""font-size:60px;"">?</div>","76","47","1","0.8"
"image-keyboard-response","128","956320","0.0-11.0-0.47","3y1zorqe7jrzdw1","1","60fda481a96c200924ca0ea9","20","04/2001","single","english","N/A","Female","Hispanic or Latino or Spanish Origin of any race","No","CEGEP, non-university college, trade school or equivalent","Yes, but not at a university","N/A","N/A","N/A","9","1","5","2","1","0.4666666880000001","stim/T020.jpg","76","76","0.28333334200000004","3","1","2","","2","0","3","2","3","2","3","3","2","3","1","2","2","2","3","5","5","4","0","0","0","3","0","4","2","4","1","3","2","5","2","0","0","1","2","3","4","3","4","1","3","3","1","3","6","1","5","5","5","3","3","4","5","5","2","4","4","1","1","0","0","agree","null","","","","","","","","stim/H220.jpg","null","","",""
